timestamp,flex_1,flex_2,flex_3,flex_4,flex_5,kalman_pitch,kalman_roll,acc_x,acc_y,acc_z,gyro_x,gyro_y,gyro_z
0,1.0,0.177,0.0,0.278,0.0,42.87,98.55,-1178.32,702.88,18323.28,1904.78,3320.88,762.44
20,0.921,0.287,0.0,0.319,1.0,14.78,57.31,-1498.32,618.88,18403.28,1481.78,2633.88,152.44
40,0.745,0.0,0.0,0.316,0.0,0.15,34.77,-1486.32,-217.12,18151.28,1174.78,1759.88,150.44
60,0.804,0.419,0.0,0.241,0.0,-8.63,21.24,-1546.32,-269.12,18959.28,2137.78,1384.88,770.44
80,0.804,0.453,0.0,0.268,1.0,-14.63,12.57,-1674.32,310.88,19343.28,2893.78,1250.88,1481.44
100,0.804,0.101,1.0,0.256,0.0,-18.83,6.31,-1354.32,278.88,20131.28,2220.78,2368.88,2075.44
120,0.686,0.384,1.0,0.373,0.515,-21.51,1.0,-1902.32,-997.12,21239.28,1169.78,2505.88,2491.44
140,0.979,0.26,0.0,0.257,0.0,-22.74,-2.96,-4130.32,-2437.12,24595.28,2796.78,-195.12,4174.44
160,0.745,0.308,0.0,0.261,1.0,-24.36,-6.15,-2518.32,-3669.12,25927.28,4438.78,-2648.12,4858.44
180,0.804,0.349,0.0,0.291,0.174,-25.51,-8.87,-1226.32,-2957.12,26747.28,2268.78,1136.88,5117.44
200,0.686,0.114,0.0,0.407,0.0,-25.09,-11.9,-1466.32,-4849.12,27243.28,-55.22,10258.88,5972.44
220,0.804,0.419,1.0,0.378,0.0,-23.31,-14.53,-2678.32,-5777.12,30851.28,-1090.22,16703.88,6823.44
240,0.745,0.025,0.307,0.299,0.0,-20.99,-16.48,-2238.32,-5913.12,32591.28,1001.78,21551.88,9966.44
260,0.452,0.46,1.0,0.319,0.94,-18.51,-18.77,-1066.32,-7245.12,30563.28,-220.22,25599.88,11412.44
280,0.686,0.177,0.0,0.351,0.0,-15.66,-21.03,-2550.32,-7857.12,31447.28,-1378.22,27585.88,13157.44
300,0.628,0.0,0.749,0.461,0.0,-12.97,-22.54,-3986.32,-7713.12,34495.28,1036.78,25785.88,16722.44
320,0.686,0.108,0.026,0.344,0.0,-10.19,-23.72,-2286.32,-9421.12,33895.28,4225.78,29004.88,19685.44
340,0.745,0.197,0.0,0.294,0.6,-7.41,-24.97,-1282.32,-10761.12,31543.28,5276.78,31547.88,19251.44
360,0.804,0.087,0.0,0.238,0.0,-4.98,-25.66,241.68,-8861.12,32415.28,6705.78,31547.88,19626.44
380,0.804,0.087,1.0,0.331,1.0,-2.51,-25.78,-2314.32,-5717.12,31839.28,8000.78,31547.88,21570.44
400,0.804,0.025,1.0,0.532,0.0,-0.05,-26.27,-3942.32,-5761.12,30371.28,6067.78,31547.88,23670.44
420,0.686,0.0,0.0,0.714,1.0,2.39,-26.18,-5582.32,-4565.12,28947.28,9507.78,31547.88,25173.44
440,0.804,0.052,0.0,0.809,0.0,4.67,-25.2,-6274.32,-1869.12,27383.28,13807.78,31547.88,27261.44
460,0.804,0.038,0.0,0.916,0.0,6.88,-24.05,-8086.32,82.88,23279.28,15013.78,31547.88,26505.44
480,0.452,0.0,0.267,0.512,0.0,8.94,-23.13,-9898.32,2878.88,17391.28,12846.78,31547.88,25756.44
500,0.804,0.0,0.548,0.426,0.0,11.63,-22.42,-12146.32,326.88,18359.28,15950.78,31547.88,25814.44
520,0.628,0.128,0.0,0.463,0.0,13.6,-20.26,-11082.32,4546.88,15387.28,19414.78,31547.88,22608.44
540,0.745,0.19,0.0,0.351,0.174,15.64,-15.03,-12122.32,9594.88,10211.28,14260.78,31547.88,18663.44
560,0.569,0.0,0.0,0.297,0.0,19.87,-10.56,-14310.32,8482.88,8923.28,6921.78,31547.88,14853.44
580,0.745,0.0,0.307,0.345,0.0,24.83,-5.45,-15542.32,8730.88,7643.28,683.78,31547.88,12638.44
600,0.686,0.0,0.0,0.304,0.0,28.29,1.42,-14814.32,9142.88,4903.28,-2431.22,31547.88,11786.44
620,0.628,0.0,0.0,0.281,0.0,31.0,8.8,-15434.32,9914.88,2939.28,-329.22,28825.88,10610.44
640,0.921,0.087,0.267,0.275,0.6,33.41,15.81,-17070.32,10910.88,2203.28,61.78,25148.88,7901.44
660,0.745,0.0,0.0,0.25,0.515,35.25,23.11,-18222.32,10214.88,607.28,-546.22,20953.88,6596.44
680,0.628,0.0,0.307,0.254,0.0,36.65,30.06,-19674.32,10990.88,1495.28,2143.78,15650.88,6817.44
700,0.686,0.0,0.0,0.243,0.94,37.22,36.7,-20298.32,12890.88,563.28,3984.78,11825.88,5795.44
720,0.686,0.073,0.0,0.304,0.685,37.46,43.09,-21006.32,12346.88,475.28,2951.78,8454.88,3877.44
740,0.628,0.0,0.0,0.269,1.0,37.75,48.93,-22634.32,12246.88,1263.28,1897.78,6035.88,2488.44
760,0.393,0.0,0.0,0.295,0.089,37.82,54.41,-23246.32,11934.88,1187.28,184.78,3633.88,1573.44
780,0.51,0.0,0.0,0.295,1.0,37.88,59.79,-23674.32,11402.88,927.28,-578.22,2832.88,674.44
800,0.804,0.08,0.0,0.291,1.0,38.14,64.54,-25854.32,11926.88,2159.28,-265.22,1504.88,238.44
820,0.51,0.0,0.187,0.269,0.0,38.3,68.83,-26638.32,12302.88,2887.28,87.78,-179.12,49.44
840,0.393,0.0,0.0,0.283,0.0,38.18,73.45,-25502.32,11602.88,1899.28,86.78,-1165.12,87.44
860,0.51,0.0,0.0,0.285,1.0,38.39,77.87,-25962.32,11178.88,2375.28,50.78,-227.12,-398.56
880,0.276,0.045,0.0,0.218,0.0,38.97,81.82,-27242.32,11082.88,3403.28,97.78,330.88,-281.56
900,0.276,0.0,0.789,0.237,0.0,39.51,85.64,-27430.32,11318.88,3511.28,1109.78,81.88,418.44
920,0.393,0.0,0.0,0.218,1.0,39.89,89.28,-26854.32,11990.88,2803.28,689.78,554.88,264.44
940,0.569,0.149,0.0,0.193,0.0,40.41,92.82,-27318.32,11406.88,2387.28,-969.22,1002.88,-515.56
960,0.569,0.0,1.0,0.226,1.0,40.85,96.18,-27094.32,11502.88,2179.28,-1485.22,866.88,-898.56
980,0.569,0.225,0.869,0.214,0.0,41.31,99.5,-27262.32,10946.88,2399.28,-1591.22,193.88,-441.56
999,0.393,0.0,0.0,0.215,0.0,41.72,102.72,-27522.32,11054.88,2855.28,1.78,-594.12,535.44
1020,0.804,0.0,0.0,0.078,1.0,41.96,105.76,-27054.32,11710.88,2583.28,500.78,-638.12,679.44
1040,0.51,0.0,0.0,0.215,1.0,42.2,108.47,-26706.32,11906.88,2379.28,-795.22,-211.12,23.44
1060,0.393,0.018,0.99,0.209,0.0,42.53,110.86,-26970.32,11918.88,2755.28,-1406.22,-126.12,-467.56
1080,0.686,0.031,0.0,0.212,1.0,42.93,113.34,-27182.32,11350.88,2823.28,-976.22,-328.12,-447.56
1100,0.393,0.059,1.0,0.209,0.0,43.35,115.82,-27594.32,11434.88,3075.28,569.78,-590.12,61.44
1120,0.51,0.0,0.95,0.237,0.685,43.6,118.05,-27262.32,12082.88,2975.28,653.78,-844.12,449.44
1140,0.393,0.0,0.0,0.223,0.515,43.93,120.25,-26990.32,11518.88,2811.28,-158.22,-621.12,230.44
1160,0.452,0.0,0.0,0.213,0.855,44.37,122.42,-27218.32,11202.88,2827.28,-329.22,-305.12,-104.56
1180,0.217,0.0,1.0,0.223,0.26,44.82,124.25,-27370.32,11538.88,3135.28,-455.22,-189.12,86.44
1200,0.51,0.0,0.388,0.149,0.0,45.27,126.16,-27298.32,11458.88,2855.28,-119.22,10.88,478.44
1220,0.51,0.0,0.0,0.239,0.0,45.67,128.1,-26978.32,11498.88,2527.28,199.78,195.88,176.44
1240,0.745,0.343,1.0,0.296,0.089,46.01,129.68,-26902.32,11962.88,2763.28,-217.22,49.88,-161.56
1260,0.452,0.0,0.0,0.189,0.0,46.38,131.34,-27070.32,11298.88,2699.28,-544.22,-290.12,-32.56
1280,0.393,0.073,0.0,0.199,1.0,46.79,132.81,-27346.32,11538.88,3111.28,197.78,-373.12,82.44
1300,0.452,0.197,0.147,0.206,0.0,47.12,134.16,-26910.32,11570.88,3023.28,-253.22,-428.12,-50.56
1320,0.393,0.0,0.0,0.186,1.0,47.55,135.54,-26874.32,11186.88,3019.28,-272.22,-93.12,37.44
1340,0.276,0.052,0.0,0.24,1.0,48.06,136.73,-27210.32,11598.88,3107.28,-98.22,556.88,-254.56
1360,0.628,0.294,0.026,0.197,1.0,48.56,137.87,-27294.32,11382.88,2987.28,-614.22,523.88,-518.56
1380,0.393,0.197,0.0,0.214,0.0,48.99,139.13,-27274.32,11118.88,2811.28,-250.22,-34.12,-96.56
1400,0.51,0.0,0.629,0.198,0.0,49.36,140.3,-27110.32,11314.88,2867.28,191.78,-136.12,403.44
1420,0.569,0.0,1.0,0.158,0.0,49.76,141.32,-27090.32,11570.88,2971.28,317.78,283.88,419.44
1440,0.569,0.0,0.0,0.175,0.0,50.14,142.28,-27218.32,11698.88,2743.28,100.78,430.88,213.44
1460,0.452,0.0,0.307,0.196,1.0,50.5,143.07,-27298.32,11742.88,2851.28,-337.22,212.88,-112.56
1480,0.51,0.0,0.0,0.232,0.0,50.79,143.74,-26942.32,11802.88,2711.28,-982.22,198.88,-452.56
1500,0.51,0.0,0.267,0.285,1.0,51.15,144.55,-27094.32,11262.88,2599.28,-943.22,285.88,-505.56
1520,0.569,0.0,0.91,0.153,1.0,51.49,145.48,-27254.32,11158.88,2855.28,501.78,-217.12,202.44
1540,0.334,0.0,0.508,0.178,0.0,51.76,146.35,-27126.32,11418.88,2867.28,1037.78,-386.12,643.44
1560,0.51,0.0,0.0,0.191,0.685,52.07,147.1,-27250.32,11330.88,2823.28,329.78,-203.12,420.44
1580,0.452,0.0,0.0,0.223,0.089,52.37,147.58,-27274.32,11610.88,2791.28,-630.22,51.88,-165.56
1600,0.628,0.0,0.307,0.162,0.089,52.76,148.11,-27310.32,11070.88,2995.28,-703.22,40.88,-68.56
1620,0.51,0.0,0.869,0.186,0.0,53.1,148.59,-27266.32,11422.88,3207.28,393.78,-60.12,529.44
1640,0.804,0.0,0.0,0.185,0.0,53.37,149.01,-27158.32,11766.88,3087.28,657.78,-73.12,590.44
1660,0.452,0.0,1.0,0.175,0.0,53.61,149.57,-26810.32,11586.88,2535.28,399.78,312.88,201.44
1680,0.276,0.025,0.709,0.197,1.0,53.95,150.03,-27226.32,11410.88,2803.28,181.78,361.88,68.44
1700,0.393,0.114,0.0,0.19,0.0,54.21,150.39,-27338.32,11554.88,3131.28,794.78,-283.12,479.44
1720,0.569,0.619,0.0,0.193,1.0,54.37,150.79,-26954.32,11774.88,2843.28,1052.78,-306.12,661.44
1740,0.393,0.0,0.0,0.204,0.0,54.58,151.24,-26806.32,11478.88,2551.28,528.78,116.88,460.44
1760,0.628,0.025,0.187,0.133,1.0,54.81,151.41,-27066.32,11730.88,2955.28,175.78,27.88,206.44
1780,0.745,0.08,0.0,0.195,0.0,55.04,151.5,-27126.32,11850.88,2875.28,-179.22,121.88,-21.56
1800,0.51,0.0,0.0,0.163,1.0,55.35,151.7,-27190.32,11374.88,2739.28,-424.22,458.88,-336.56
1820,0.569,0.0,0.0,0.195,0.0,55.64,151.88,-27134.32,11266.88,2679.28,-709.22,374.88,-472.56
1840,0.51,0.37,0.0,0.185,0.0,55.92,152.04,-27070.32,11118.88,2855.28,-629.22,121.88,-145.56
1860,0.393,0.0,1.0,0.185,0.685,56.19,152.18,-27134.32,11298.88,2903.28,-196.22,172.88,157.44
1880,0.686,0.0,1.0,0.209,1.0,56.39,152.3,-27270.32,11558.88,2831.28,180.78,-45.12,357.44
1900,0.393,0.0,0.0,0.154,1.0,56.52,152.4,-26966.32,11650.88,2655.28,107.78,-190.12,267.44
1920,0.217,0.0,0.0,0.213,1.0,56.67,152.4,-26882.32,11566.88,2779.28,-435.22,-67.12,-85.56
1940,0.452,0.0,0.669,0.198,0.0,56.87,152.35,-27162.32,11554.88,2995.28,-209.22,-69.12,-29.56
1960,0.158,0.0,0.0,0.124,0.0,57.04,152.31,-27090.32,11638.88,2991.28,108.78,-183.12,33.44
1980,0.452,0.0,0.227,0.154,0.0,57.2,152.34,-26918.32,11498.88,2675.28,-253.22,38.88,-117.56
2000,0.393,0.0,0.0,0.182,0.0,57.43,152.24,-27150.32,11490.88,2891.28,-568.22,288.88,-331.56
2020,0.686,0.0,1.0,0.137,1.0,57.65,152.18,-27278.32,11358.88,2951.28,-338.22,-9.12,-103.56
2040,0.276,0.0,0.0,0.15,1.0,57.78,152.16,-27182.32,11526.88,2919.28,304.78,-336.12,209.44
2060,0.393,0.0,0.0,0.187,0.0,57.9,152.19,-27086.32,11506.88,2635.28,112.78,-180.12,142.44
2080,0.276,0.0,0.0,0.238,1.0,58.09,152.12,-27050.32,11374.88,2831.28,-305.22,69.88,-18.56
2100,0.569,0.0,0.0,0.212,0.345,58.28,151.94,-27314.32,11674.88,2963.28,-220.22,132.88,-38.56
2120,0.628,0.087,0.0,0.199,0.0,58.5,151.79,-27262.32,11538.88,2855.28,-350.22,340.88,-170.56
2140,0.452,0.0,0.0,0.218,1.0,58.72,151.67,-27318.32,11390.88,2819.28,-424.22,305.88,-87.56
2160,0.393,0.0,0.0,0.211,0.0,58.85,151.46,-27322.32,11734.88,2839.28,-338.22,-62.12,207.44
2180,0.217,0.0,0.789,0.238,1.0,58.93,151.27,-27046.32,11770.88,2847.28,-105.22,-139.12,374.44
2200,0.276,0.045,0.0,0.142,0.0,59.07,151.19,-26974.32,11626.88,2839.28,436.78,118.88,469.44
2220,0.393,0.038,1.0,0.195,0.0,59.18,151.07,-26998.32,11826.88,2699.28,371.78,257.88,333.44
2240,0.51,0.0,0.0,0.181,0.174,59.27,150.77,-27178.32,12066.88,2911.28,-43.22,56.88,-23.56
2260,0.51,0.031,0.307,0.167,0.0,59.33,150.46,-26970.32,11806.88,2831.28,-616.22,-137.12,-336.56
2280,0.217,0.0,0.0,0.162,1.0,59.44,150.41,-26806.32,11226.88,2535.28,-527.22,44.88,-354.56
2300,0.452,0.432,1.0,0.186,0.0,59.59,150.33,-26970.32,11390.88,2771.28,184.78,155.88,81.44
2320,0.628,0.356,0.0,0.178,0.0,59.71,150.18,-27310.32,11502.88,3023.28,390.78,-205.12,252.44
2340,0.393,0.0,0.0,0.181,0.345,59.78,149.99,-26978.32,11650.88,2779.28,-6.22,-122.12,26.44
2360,0.1,0.0,1.0,0.149,0.0,59.91,149.79,-26958.32,11434.88,2723.28,-568.22,161.88,-208.56
2380,0.393,0.0,0.0,0.218,1.0,60.04,149.49,-27010.32,11766.88,2763.28,-474.22,428.88,-201.56
2400,0.628,0.0,0.0,0.187,0.0,60.21,149.18,-27322.32,11670.88,3103.28,-138.22,218.88,-84.56
2420,0.452,0.0,1.0,0.156,1.0,60.31,148.96,-27142.32,11798.88,2755.28,72.78,227.88,-104.56
2440,0.51,0.0,1.0,0.227,0.515,60.43,148.81,-27026.32,11406.88,2703.28,-228.22,201.88,-309.56
2460,0.393,0.0,0.0,0.126,1.0,60.55,148.65,-27222.32,11506.88,2771.28,29.78,129.88,-134.56
2480,0.393,0.0,0.0,0.186,0.0,60.63,148.45,-27150.32,11642.88,2827.28,148.78,14.88,107.44
2500,0.217,0.287,1.0,0.202,1.0,60.74,148.34,-27226.32,11506.88,2567.28,79.78,233.88,-22.56
2520,0.452,0.0,0.0,0.261,0.0,60.84,148.19,-27262.32,11406.88,2627.28,-208.22,82.88,-44.56
2540,0.452,0.0,0.0,0.164,1.0,60.94,147.9,-27198.32,11558.88,3023.28,-148.22,-80.12,254.44
2560,0.041,0.0,0.95,0.159,0.0,61.06,147.59,-27318.32,11570.88,3111.28,-87.22,-3.12,265.44
2580,0.686,0.0,0.0,0.172,0.0,61.15,147.38,-27258.32,11582.88,2767.28,6.78,148.88,240.44
2600,0.1,0.197,0.0,0.153,1.0,61.18,147.19,-26774.32,11558.88,2563.28,-382.22,94.88,170.44
2620,0.393,0.0,0.0,0.19,1.0,61.27,146.97,-26930.32,11526.88,2787.28,-114.22,203.88,301.44
2640,0.276,0.0,1.0,0.2,1.0,61.33,146.73,-27034.32,11842.88,2759.28,222.78,278.88,283.44
2660,0.393,0.0,0.0,0.158,1.0,61.39,146.47,-27018.32,11766.88,2699.28,-174.22,292.88,-81.56
2680,0.217,0.0,0.227,0.156,1.0,61.41,146.19,-26814.32,11642.88,2471.28,-908.22,194.88,-466.56
2700,0.276,0.0,0.0,0.156,0.0,61.48,145.88,-26986.32,11418.88,2775.28,-1035.22,65.88,-283.56
2720,0.158,0.0,0.187,0.229,0.0,61.53,145.72,-27074.32,11394.88,2903.28,206.78,-221.12,301.44
2740,0.158,0.0,0.307,0.185,1.0,61.51,145.51,-27066.32,11854.88,2879.28,672.78,-324.12,305.44
2760,0.393,0.066,1.0,0.167,1.0,61.5,145.23,-27042.32,11778.88,2783.28,-190.22,-266.12,-103.56
2780,0.276,0.446,0.468,0.2,1.0,61.55,144.88,-27054.32,11538.88,2919.28,-749.22,-129.12,-209.56
2800,0.569,0.0,0.869,0.188,0.0,61.63,144.56,-27178.32,11514.88,3195.28,-125.22,-152.12,41.44
2820,0.1,0.0,1.0,0.193,1.0,61.73,144.39,-27190.32,11530.88,3103.28,718.78,26.88,202.44
2840,0.393,0.0,0.0,0.132,0.0,61.8,144.21,-26990.32,11698.88,2807.28,371.78,287.88,-165.56
2860,0.041,0.197,0.147,0.178,0.0,61.89,143.79,-26898.32,11750.88,2867.28,-1007.22,496.88,-797.56
2880,0.452,0.0,0.0,0.154,1.0,62.04,143.33,-27062.32,11434.88,2911.28,-1848.22,563.88,-944.56
2900,0.041,0.0,0.0,0.192,0.004,62.21,143.11,-27226.32,11242.88,2987.28,-503.22,415.88,-323.56
2920,0.393,0.0,0.388,0.145,1.0,62.27,142.93,-27374.32,11762.88,2895.28,510.78,139.88,114.44
2940,0.628,0.0,0.0,0.173,0.0,62.26,142.8,-27126.32,11734.88,2699.28,391.78,-58.12,77.44
2960,0.158,0.0,0.0,0.178,0.0,62.26,142.55,-26986.32,11818.88,2591.28,-400.22,222.88,-186.56
2980,0.51,0.0,0.0,0.186,0.94,62.38,142.23,-27330.32,11486.88,2787.28,-1164.22,460.88,-572.56
