timestamp,flex_1,flex_2,flex_3,flex_4,flex_5,kalman_pitch,kalman_roll,acc_x,acc_y,acc_z,gyro_x,gyro_y,gyro_z
0,0.721,0.0,1.0,0.0,0.0,40.71,90.91,4329.6,1699.76,11894.32,-309.72,-1641.06,-1636.94
20,0.753,0.447,1.0,0.0,0.156,12.74,56.24,4997.6,1431.76,11070.32,834.28,-1589.06,-1737.94
40,0.625,0.0,1.0,0.0,0.838,-2.43,36.15,5133.6,419.76,12158.32,4242.28,1762.94,1193.06
60,0.781,0.009,0.162,0.0,0.0,-12.34,23.92,6189.6,911.76,12114.32,8674.28,6399.94,2342.06
80,0.965,1.0,0.0,0.003,0.649,-19.18,16.83,6401.6,2647.76,12062.32,8686.28,10945.94,240.06
100,0.802,0.251,0.0,0.0,0.693,-23.2,11.42,4889.6,2515.76,13198.32,4890.28,12595.94,-1385.94
120,0.853,0.682,0.0,0.0,1.0,-25.8,7.44,2013.6,3495.76,14130.32,-209.72,8700.94,-2497.94
140,0.739,0.76,1.0,0.359,0.62,-28.94,2.34,1953.6,1919.76,12898.32,-4202.72,1785.94,-2010.94
160,0.755,0.225,0.373,0.026,0.0,-32.54,-2.78,3193.6,919.76,12206.32,-4590.72,-3175.06,-1406.94
180,0.663,0.028,1.0,1.0,0.0,-35.65,-7.07,2857.6,103.76,12770.32,-2394.72,-5620.06,-58.94
200,0.695,0.0,1.0,0.0,1.0,-38.51,-10.78,2609.6,-212.24,12730.32,-1305.72,-7165.06,-120.94
220,0.744,0.342,0.848,0.0,0.795,-41.52,-14.17,3733.6,-204.24,12386.32,-1445.72,-8356.06,-1200.94
240,0.641,0.087,1.0,0.032,1.0,-44.29,-17.75,3213.6,-644.24,12126.32,-3762.72,-9442.06,-2083.94
260,0.495,0.002,0.215,0.0,1.0,-47.14,-21.77,4225.6,-1248.24,10966.32,-5440.72,-10020.06,-1502.94
280,0.674,1.0,1.0,0.33,0.185,-49.3,-25.89,4817.6,-3144.24,11518.32,-6620.72,-8634.06,1482.06
300,0.481,0.76,0.0,0.703,1.0,-50.11,-29.69,4377.6,-4532.24,12614.32,-6973.72,-2700.06,5450.06
320,0.446,0.342,0.0,0.531,0.461,-49.85,-33.31,4425.6,-5252.24,13626.32,-8571.72,3371.94,8651.06
340,0.483,0.564,1.0,0.41,0.0,-48.66,-37.35,3973.6,-6928.24,14094.32,-12192.72,8231.94,10356.06
360,0.465,0.506,0.109,0.0,0.562,-47.09,-41.66,2341.6,-9068.24,15478.32,-15898.72,8147.94,12050.06
380,0.539,0.14,0.0,0.038,0.0,-46.29,-45.73,3289.6,-9364.24,14606.32,-14990.72,4478.94,16871.06
400,0.6,0.218,0.004,0.003,0.853,-45.16,-49.16,4381.6,-11372.24,14774.32,-11116.72,7074.94,24600.06
420,0.485,0.29,1.0,0.003,0.78,-43.74,-52.8,3589.6,-15040.24,14334.32,-11820.72,7345.94,30109.06
440,0.278,0.107,1.0,0.0,0.0,-42.24,-56.78,473.6,-16140.24,12850.32,-13826.72,5854.94,32934.06
460,0.231,0.963,0.268,0.0,0.0,-40.7,-61.01,577.6,-17676.24,11946.32,-15895.72,6362.94,32934.06
480,0.374,0.0,0.109,0.095,0.229,-39.17,-65.21,497.6,-18176.24,12482.32,-17731.72,6648.94,32688.06
500,0.283,0.78,0.0,0.663,0.0,-37.95,-69.19,221.6,-18612.24,11542.32,-16974.72,4805.94,32934.06
520,0.348,0.172,0.0,0.244,0.708,-37.01,-72.67,-110.4,-18596.24,10410.32,-14067.72,3049.94,32934.06
540,0.381,0.323,1.0,0.0,0.504,-36.15,-75.44,-1090.4,-18236.24,9914.32,-10178.72,2194.94,32934.06
560,0.392,0.342,1.0,0.0,1.0,-35.36,-77.74,-2350.4,-16800.24,10434.32,-8711.72,1247.94,32934.06
580,0.353,0.198,0.716,0.192,0.388,-34.59,-79.99,-4218.4,-16696.24,10186.32,-9090.72,-215.06,32934.06
600,0.36,0.0,0.0,0.0,0.025,-33.89,-82.22,-4686.4,-15448.24,9058.32,-9017.72,-723.06,32934.06
620,0.285,0.551,1.0,0.0,0.0,-33.02,-84.61,-5998.4,-15376.24,8422.32,-10438.72,-601.06,32934.06
640,0.411,0.78,0.0,0.0,0.562,-31.83,-87.14,-7938.4,-16956.24,8042.32,-11733.72,-234.06,32780.06
660,0.409,0.159,0.0,0.0,0.054,-30.59,-89.61,-7042.4,-15888.24,6214.32,-10658.72,1392.94,31575.06
680,0.14,0.0,0.321,0.066,0.0,-28.96,-92.29,-9430.4,-15044.24,7554.32,-14535.72,2071.94,31491.06
700,0.24,0.0,0.0,0.548,1.0,-27.02,-94.72,-11242.4,-16040.24,7918.32,-14128.72,2859.94,30511.06
720,0.245,0.094,1.0,0.0,0.301,-25.14,-96.68,-10902.4,-14816.24,5778.32,-9841.72,3176.94,30695.06
740,0.292,0.649,0.453,0.003,0.824,-23.16,-98.43,-10938.4,-13416.24,4666.32,-8133.72,4247.94,29587.06
760,0.487,0.0,1.0,0.359,0.693,-21.04,-99.78,-11986.4,-11380.24,5534.32,-7118.72,4391.94,28382.06
780,0.243,0.0,0.98,0.015,0.0,-19.09,-100.82,-13454.4,-10520.24,5066.32,-5028.72,1797.94,29375.06
800,0.301,0.0,0.558,0.032,0.2,-17.48,-101.82,-13462.4,-10152.24,4002.32,-3858.72,-233.06,29354.06
820,0.404,0.283,0.0,0.0,0.214,-15.49,-102.38,-15070.4,-7056.24,4118.32,-1230.72,-593.06,28240.06
840,0.444,0.009,1.0,0.0,1.0,-13.47,-103.25,-14094.4,-5688.24,2890.32,-1383.72,829.94,26608.06
860,0.366,0.179,0.479,0.313,0.345,-11.28,-104.34,-14878.4,-5580.24,2598.32,-2746.72,1231.94,25427.06
880,0.285,0.0,1.0,0.0,0.824,-9.32,-105.15,-15366.4,-5968.24,3854.32,-3592.72,-327.06,26167.06
900,0.262,0.381,1.0,0.112,0.664,-7.75,-105.86,-16030.4,-5132.24,4122.32,-3672.72,-4217.06,25647.06
920,0.332,0.473,0.875,0.032,0.0,-6.39,-106.52,-14778.4,-2188.24,3826.32,-2575.72,-6009.06,25954.06
940,0.131,0.218,0.0,0.256,0.649,-5.11,-107.24,-14046.4,-3424.24,3182.32,-2268.72,-3717.06,26570.06
960,0.476,0.113,0.0,0.0,1.0,-2.62,-106.79,-15218.4,-1440.24,3858.32,4506.28,549.94,24021.06
980,0.346,0.244,0.769,0.376,0.0,0.06,-106.74,-15454.4,327.76,3262.32,4545.28,-472.06,24311.06
1000,0.395,0.0,0.0,0.0,0.185,3.02,-106.38,-15422.4,1571.76,4298.32,3254.28,-528.06,23534.06
1020,0.474,0.342,0.0,0.221,0.287,6.5,-105.76,-15358.4,3183.76,4334.32,5664.28,-225.06,23582.06
1040,0.553,0.0,1.0,0.0,0.272,10.28,-107.79,-15502.4,4763.76,2870.32,3961.28,66.94,22871.06
1060,0.373,0.113,1.0,0.112,0.0,14.39,-111.23,-16490.4,5619.76,3002.32,730.28,648.94,21612.06
1080,0.532,0.0,0.0,0.192,0.0,19.02,-114.4,-15446.4,6103.76,4146.32,3021.28,1851.94,21859.06
1100,0.557,0.225,0.0,0.456,0.0,23.3,-102.06,-15902.4,7135.76,4194.32,6366.28,2105.94,22104.06
1120,0.245,0.0,0.426,0.307,0.0,26.57,-90.52,-16598.4,8883.76,3666.32,5867.28,1150.94,21045.06
1140,0.48,1.0,0.453,0.0,1.0,29.29,-78.82,-16326.4,9331.76,2482.32,4321.28,1078.94,19796.06
1160,0.359,0.166,0.0,0.164,0.0,31.79,-67.45,-16566.4,9831.76,2338.32,5677.28,1121.94,20366.06
1180,0.537,1.0,0.0,0.399,0.0,34.45,-56.59,-17742.4,10999.76,2458.32,7993.28,3463.94,17763.06
1200,0.362,0.401,0.0,0.944,1.0,36.42,-46.68,-16970.4,12663.76,2710.32,7142.28,3067.94,14146.06
1220,0.236,0.917,0.0,0.233,1.0,38.49,-36.82,-17474.4,10579.76,2358.32,5337.28,512.94,10814.06
1240,0.371,0.473,0.848,0.0,1.0,39.83,-27.02,-15590.4,10835.76,2270.32,7657.28,-543.06,8494.06
1260,0.222,0.702,1.0,1.0,1.0,40.36,-16.99,-12618.4,10503.76,2086.32,10477.28,1007.94,7505.06
1280,0.248,0.153,1.0,0.863,1.0,41.49,-8.19,-16658.4,13251.76,2558.32,9972.28,607.94,5666.06
1300,0.467,0.492,1.0,0.743,0.0,42.08,0.2,-18626.4,12791.76,1378.32,5958.28,-5312.06,2412.06
1320,0.465,0.414,1.0,0.284,0.258,41.23,10.25,-17094.4,11127.76,-2409.68,9123.28,-11528.06,1726.06
1340,0.776,0.551,1.0,1.0,0.853,39.55,19.87,-16034.4,15555.76,-3237.68,14494.28,-12662.06,-291.94
1360,0.55,0.028,0.136,0.944,1.0,38.6,28.35,-20026.4,17931.76,-3913.68,10751.28,-11096.06,-5203.94
1380,0.67,0.76,0.0,0.244,1.0,38.24,35.45,-25402.4,19803.76,-3993.68,5096.28,-10541.06,-9586.94
1400,0.497,0.643,0.0,0.009,0.0,38.53,42.45,-27610.4,17947.76,-3297.68,5732.28,-8926.06,-11217.94
1420,0.506,0.793,0.0,0.668,0.519,39.67,48.88,-30286.4,17671.76,-1249.68,6354.28,-5334.06,-11784.94
1440,0.607,0.309,0.162,0.938,1.0,41.19,54.02,-33386.4,20143.76,1950.32,5210.28,-2817.06,-9542.94
1460,0.607,0.584,1.0,0.892,0.0,42.73,58.43,-33886.4,21779.76,2746.32,3127.28,-1508.06,-6631.94
1481,0.464,0.27,0.109,0.0,0.0,44.3,62.34,-33694.4,20755.76,3626.32,2114.28,-1379.06,-4410.94
1500,0.572,0.715,1.0,0.657,0.229,45.73,66.47,-32854.4,20259.76,2510.32,3161.28,-1830.06,-2603.94
1520,0.543,0.845,1.0,0.451,0.025,47.12,70.4,-32518.4,19703.76,1822.32,1914.28,-1804.06,-1067.94
1540,0.637,0.414,1.0,1.0,0.374,48.63,73.85,-31398.4,16435.76,1730.32,-1636.72,-2396.06,-90.94
1560,0.553,0.388,1.0,0.571,0.011,50.24,77.09,-29850.4,13583.76,2282.32,-2703.72,-3036.06,974.06
1580,0.902,0.747,0.373,1.0,0.0,51.94,80.67,-28802.4,10871.76,2766.32,-930.72,-4257.06,2802.06
1600,0.635,0.976,0.0,0.192,0.838,53.05,84.27,-26158.4,12079.76,2678.32,1574.28,-5729.06,4156.06
1620,0.621,0.774,0.0,0.697,0.0,54.04,87.79,-23678.4,11691.76,2010.32,-448.72,-5275.06,4475.06
1640,0.437,0.048,0.268,0.0,0.0,55.33,90.35,-22598.4,11271.76,2990.32,-3269.72,-3296.06,4045.06
1660,0.606,1.0,1.0,1.0,1.0,56.84,92.21,-22266.4,10919.76,4030.32,-3472.72,-2025.06,3569.06
1680,0.662,0.747,1.0,0.668,0.0,57.97,94.11,-21554.4,12419.76,4126.32,-1629.72,-1699.06,3032.06
1700,0.593,0.957,1.0,0.0,0.679,59.1,95.79,-21530.4,12395.76,4362.32,-1721.72,-1401.06,2254.06
1720,0.541,0.466,1.0,0.657,0.0,60.32,97.27,-21638.4,12015.76,4678.32,-1425.72,-963.06,1680.06
1740,0.648,0.669,0.0,0.347,0.0,61.68,98.95,-22086.4,12059.76,4394.32,-538.72,171.94,861.06
1760,0.404,0.427,0.453,0.336,1.0,63.12,100.57,-23454.4,12319.76,4386.32,-200.72,747.94,380.06
1780,0.516,0.525,0.69,0.473,1.0,64.47,102.29,-23494.4,12247.76,3946.32,-482.72,529.94,23.06
1800,0.492,1.0,1.0,0.296,0.0,65.85,103.86,-23898.4,11979.76,4034.32,-631.72,673.94,-278.94
1820,0.516,0.055,0.954,0.233,0.475,67.26,105.51,-24418.4,11743.76,3698.32,-761.72,864.94,-238.94
1840,0.499,1.0,0.0,0.904,1.0,68.5,106.99,-24622.4,12299.76,3778.32,-740.72,704.94,-274.94
1860,0.67,1.0,1.0,0.175,0.0,69.61,108.16,-24890.4,12271.76,4302.32,-619.72,32.94,-232.94
1880,0.52,0.0,0.0,0.25,1.0,70.52,109.16,-24482.4,12467.76,4606.32,-295.72,-543.06,-139.94
1900,0.499,0.95,0.0,0.347,1.0,71.36,110.16,-24506.4,12643.76,4482.32,-259.72,-534.06,-126.94
1920,0.422,0.421,1.0,0.0,1.0,72.21,111.16,-24282.4,12511.76,4226.32,-605.72,-153.06,-467.94
1940,0.25,1.0,0.98,0.571,0.722,73.19,111.91,-24798.4,12175.76,4518.32,-906.72,445.94,-574.94
1960,0.469,0.0,1.0,0.256,0.577,74.14,112.64,-24942.4,12239.76,4514.32,-767.72,555.94,-396.94
1980,0.436,0.878,0.0,0.405,0.403,74.95,113.55,-24670.4,12335.76,4098.32,-396.72,294.94,-258.94
2000,0.679,0.342,1.0,0.0,0.0,75.61,114.61,-24578.4,12507.76,3766.32,-15.72,-190.06,-146.94
2020,0.492,0.787,0.0,0.743,0.0,76.12,115.63,-24378.4,12619.76,3850.32,547.28,-740.06,24.06
2040,0.401,0.617,0.0,0.364,0.127,76.51,116.68,-24070.4,12887.76,3706.32,817.28,-853.06,-2.94
2060,0.697,1.0,1.0,0.657,0.0,76.96,117.46,-24082.4,12591.76,4042.32,390.28,-631.06,-336.94
2080,0.527,0.577,0.558,0.0,0.0,77.46,118.08,-24270.4,12187.76,4258.32,258.28,-605.06,-535.94
2100,0.592,0.891,1.0,0.0,1.0,77.91,118.48,-24310.4,12331.76,4578.32,141.28,-637.06,-348.94
2120,0.497,0.309,1.0,0.376,0.548,78.27,118.85,-24118.4,12555.76,4614.32,420.28,-681.06,-291.94
2140,0.658,0.525,0.0,0.542,1.0,78.5,119.36,-24114.4,13103.76,4346.32,864.28,-741.06,-491.94
2160,0.602,0.734,0.0,0.657,0.0,78.74,119.92,-24322.4,12987.76,3934.32,319.28,-685.06,-722.94
2180,0.476,0.46,0.0,0.68,0.0,78.99,120.47,-24514.4,12803.76,3790.32,153.28,-770.06,-676.94
2200,0.509,0.747,1.0,0.0,1.0,79.28,121.04,-24666.4,12755.76,3774.32,538.28,-454.06,-732.94
2220,0.38,0.8,1.0,0.56,1.0,79.66,121.44,-24926.4,12731.76,3870.32,-63.72,131.94,-837.94
2240,0.55,0.486,0.0,0.221,1.0,80.14,121.86,-25602.4,11995.76,3390.32,-1461.72,104.94,-244.94
2260,0.439,0.715,0.479,0.0,0.0,80.56,122.24,-25382.4,11715.76,3622.32,-899.72,-395.06,302.06
2280,0.59,0.492,1.0,1.0,0.824,80.71,122.69,-24722.4,12291.76,3830.32,810.28,-1140.06,967.06
2300,0.565,0.819,0.637,1.0,0.577,80.67,122.98,-24026.4,13135.76,4158.32,1236.28,-1134.06,1144.06
2320,0.667,0.532,1.0,0.829,0.0,80.69,123.01,-24038.4,13235.76,4278.32,36.28,-523.06,1130.06
2340,0.762,0.689,0.584,0.336,0.591,80.82,122.85,-24082.4,13011.76,4298.32,-992.72,129.94,977.06
2360,1.0,0.937,0.109,0.256,1.0,81.03,122.76,-24190.4,12651.76,4242.32,-669.72,271.94,1044.06
2379,0.728,0.715,1.0,0.399,1.0,81.12,122.91,-23774.4,12759.76,4090.32,747.28,3.94,1034.06
2399,0.677,0.538,1.0,0.674,1.0,81.07,123.06,-23774.4,13511.76,4118.32,1154.28,-4.06,732.06
2419,0.621,0.577,0.743,0.56,0.0,81.11,122.99,-23694.4,13311.76,4190.32,50.28,505.94,162.06
2440,0.758,0.309,1.0,1.0,0.867,81.34,122.78,-24114.4,12463.76,4218.32,-804.72,817.94,-331.94
2460,1.0,0.97,1.0,0.376,0.693,81.54,122.76,-24370.4,12199.76,3970.32,-316.72,305.94,-427.94
2480,0.557,0.551,0.162,0.336,0.0,81.55,122.74,-24494.4,12587.76,3934.32,-97.72,-419.06,-297.94
2500,0.665,0.434,0.426,0.376,1.0,81.48,122.61,-24442.4,12483.76,4070.32,-321.72,-1007.06,-292.94
2520,0.606,0.0,0.532,0.927,0.0,81.33,122.43,-24138.4,12843.76,4178.32,-155.72,-973.06,-470.94
2540,0.604,0.643,0.0,0.319,0.737,81.27,122.07,-24570.4,12751.76,4390.32,-706.72,-623.06,-620.94
2560,0.604,1.0,1.0,0.284,0.0,81.24,121.75,-24662.4,12487.76,4442.32,-199.72,-681.06,-498.94
2580,0.567,0.277,0.215,0.542,0.098,81.17,121.63,-24362.4,12447.76,4206.32,465.28,-765.06,-462.94
2600,0.628,0.682,1.0,0.554,1.0,81.17,121.36,-24762.4,12499.76,4398.32,184.28,-400.06,-172.94
2620,0.669,0.192,0.0,0.451,0.0,81.26,121.13,-24950.4,12135.76,4126.32,-353.72,-128.06,97.06
2640,0.856,0.793,0.0,0.565,1.0,81.28,120.9,-24838.4,12451.76,4070.32,-362.72,-86.06,396.06
2660,0.797,0.0,1.0,0.76,0.577,81.29,120.71,-24458.4,12175.76,3950.32,-521.72,-179.06,579.06
2680,0.565,0.0,0.0,0.479,0.649,81.19,120.51,-24310.4,12727.76,4106.32,116.28,-270.06,697.06
2700,0.618,0.414,1.0,0.737,0.0,80.96,120.18,-23818.4,13339.76,4390.32,276.28,-136.06,509.06
2719,0.52,1.0,1.0,0.542,0.229,80.79,119.89,-23606.4,13183.76,4158.32,-95.72,203.94,240.06
2740,0.483,0.368,1.0,0.347,1.0,80.59,119.47,-23614.4,13311.76,4558.32,164.28,244.94,-99.94
2760,0.599,0.447,1.0,0.428,0.0,80.45,119.07,-23762.4,12803.76,4606.32,513.28,-11.06,-365.94
2780,0.578,0.296,0.0,0.709,0.0,80.2,118.84,-23874.4,13371.76,4362.32,1020.28,-155.06,-674.94
2800,0.462,1.0,0.0,0.846,0.156,79.99,118.63,-23994.4,13263.76,3910.32,46.28,63.94,-1182.94
2820,0.532,0.551,0.0,0.491,1.0,80.08,118.25,-24574.4,12187.76,4030.32,-1046.72,567.94,-1523.94
2840,0.492,0.898,1.0,0.519,0.0,80.34,117.97,-25098.4,11187.76,4006.32,-794.72,593.94,-1241.94
2860,0.55,0.225,1.0,0.25,1.0,80.42,117.8,-25494.4,11587.76,4126.32,573.28,-248.06,-515.94
2880,0.571,0.937,0.0,0.818,0.0,80.25,117.67,-24926.4,12291.76,3978.32,646.28,-822.06,-98.94
2900,0.576,0.767,0.0,0.709,0.316,80.21,117.3,-25034.4,12059.76,4090.32,-637.72,-317.06,133.06
2920,0.557,0.525,0.109,0.657,0.0,80.25,116.75,-24858.4,11747.76,4306.32,-1152.72,57.94,221.06
2940,0.763,0.453,0.848,0.588,0.0,80.23,116.27,-24854.4,12011.76,4458.32,-218.72,-11.06,739.06
2960,0.523,0.355,1.0,0.0,0.025,80.12,116.06,-24494.4,12227.76,4066.32,399.28,-180.06,795.06
2980,0.599,1.0,1.0,0.267,0.054,79.84,115.75,-24150.4,13035.76,4170.32,267.28,-194.06,695.06
