timestamp,flex_1,flex_2,flex_3,flex_4,flex_5,kalman_pitch,kalman_roll,acc_x,acc_y,acc_z,gyro_x,gyro_y,gyro_z
0,0.0,0.0,0.0,0.457,1.0,-30.83,50.97,5088.56,1092.56,10861.52,3126.38,-3225.1,1306.58
20,0.0,0.0,0.0,0.42,0.752,-39.91,17.05,5232.56,56.56,11053.52,1888.38,-2045.1,1606.58
39,0.0,0.0,0.0,0.507,1.0,-44.51,0.99,5620.56,240.56,11337.52,1499.38,-1538.1,1160.58
59,0.0,0.0,0.0,0.445,0.0,-47.33,-8.49,5368.56,584.56,11269.52,391.38,-1092.1,469.58
80,0.0,0.009,0.0,0.47,0.11,-49.21,-14.9,5232.56,752.56,11153.52,103.38,-263.1,-245.42
98,0.0,0.0,0.0,0.544,0.0,-50.44,-19.35,5440.56,744.56,11577.52,44.38,229.9,-473.42
119,0.0,0.0,0.0,0.097,0.11,-51.02,-22.83,4780.56,168.56,12201.52,209.38,-613.1,-648.42
139,0.0,0.0,0.0,0.718,0.0,-51.83,-25.75,5068.56,284.56,11669.52,692.38,-1388.1,-942.42
158,0.0,0.284,0.0,1.0,1.0,-53.14,-28.27,5944.56,1096.56,10673.52,239.38,-1685.1,-1088.42
179,0.0,0.081,0.0,1.0,0.0,-54.16,-30.63,5908.56,948.56,10885.52,-1352.62,-1498.1,-1319.42
200,0.0,0.0,0.0,1.0,0.11,-54.98,-33.18,6584.56,-127.44,10981.52,-1824.62,-1802.1,-815.42
220,0.0,0.0,0.0,1.0,1.0,-55.5,-35.36,6552.56,-1503.44,12137.52,-825.62,-3202.1,-1128.42
238,0.0,0.057,0.0,0.445,0.008,-55.99,-36.51,4632.56,-207.44,12969.52,288.38,-5083.1,-833.42
259,0.0,0.0,0.0,0.0,0.0,-56.94,-37.61,6124.56,-891.44,13001.52,1385.38,-7444.1,2336.58
279,0.0,0.13,0.0,0.0,0.177,-58.21,-38.63,6964.56,368.56,11681.52,1033.38,-6905.1,6615.58
299,0.0,0.09,0.0,0.0,0.076,-59.34,-40.52,8184.56,-863.44,10705.52,-960.62,-5758.1,10274.58
319,0.0,0.0,0.0,0.048,0.0,-59.71,-43.04,7816.56,-2815.44,10205.52,-2187.62,-2894.1,13518.58
339,0.0,0.098,0.0,0.035,0.177,-59.13,-45.6,6996.56,-5371.44,10321.52,-1192.62,504.9,15759.58
360,0.0,0.146,0.0,0.184,0.11,-57.85,-47.33,6712.56,-7359.44,11245.52,3413.38,3485.9,17779.58
379,1.0,0.154,0.0,0.706,0.076,-56.45,-48.34,7712.56,-6219.44,10705.52,7602.38,6860.9,18404.58
399,0.305,0.138,0.0,1.0,0.312,-54.53,-48.89,5580.56,-6259.44,12337.52,7910.38,8600.9,16970.58
419,0.182,0.203,0.0,1.0,0.684,-52.67,-48.7,6852.56,-6603.44,13421.52,11672.38,9444.9,16991.58
440,1.0,0.171,0.0,1.0,0.042,-50.73,-48.1,6584.56,-7195.44,13649.52,14855.38,10080.9,18383.58
460,0.0,0.0,0.0,1.0,0.0,-48.67,-47.26,4628.56,-7979.44,14937.52,15993.38,9077.9,15809.58
478,0.0,0.235,0.0,1.0,0.684,-46.84,-46.0,4752.56,-7847.44,15805.52,18222.38,8178.9,13403.58
499,0.524,0.179,0.0,0.346,0.684,-45.26,-44.57,3736.56,-7555.44,14649.52,21012.38,6860.9,12478.58
519,0.0,0.162,0.0,1.0,0.211,-43.48,-42.54,3220.56,-7587.44,14825.52,25712.38,8275.9,11945.58
539,0.0,0.0,0.0,1.0,1.0,-41.7,-40.01,3252.56,-7123.44,15097.52,29427.38,9133.9,10446.58
559,0.154,0.146,1.0,1.0,0.279,-39.68,-36.85,1404.56,-3179.44,17401.52,28708.38,10393.9,7066.58
578,0.0,0.146,0.0,1.0,1.0,-37.63,-33.94,1708.56,-1603.44,18077.52,25892.38,11876.9,8547.58
599,0.0,0.057,0.0,1.0,1.0,-34.64,-31.79,-239.44,-2735.44,19965.52,21668.38,15877.9,8227.58
619,0.0,0.114,0.372,1.0,0.684,-31.58,-30.07,-843.44,-3223.44,20057.52,20116.38,16750.9,9212.58
639,0.0,0.122,0.0,1.0,0.0,-28.33,-27.99,-2583.44,-1627.44,20073.52,21479.38,17667.9,8673.58
659,0.0,0.13,0.0,1.0,0.0,-24.86,-25.75,-4979.44,-1151.44,18845.52,23756.38,17885.9,6861.58
679,0.0,0.106,0.0,1.0,0.684,-21.24,-22.49,-4035.44,856.56,16773.52,30372.38,22653.9,8102.58
699,0.0,0.114,0.0,1.0,0.0,-16.62,-18.13,-5823.44,4376.56,17969.52,33176.38,28291.9,8182.58
719,0.0,0.081,0.0,1.0,0.921,-11.29,-13.76,-8935.44,9960.56,18325.52,25584.38,29908.9,6596.58
739,0.0,0.162,0.0,0.979,0.718,-6.32,-11.52,-10071.44,7292.56,17141.52,16618.38,27367.9,6902.58
760,0.0,0.146,0.0,0.594,0.684,-1.22,-10.17,-12187.44,4704.56,16449.52,16030.38,26227.9,6896.58
780,0.0,0.146,0.0,0.991,0.0,3.57,-8.54,-12323.44,3532.56,15077.52,21457.38,25208.9,7944.58
799,0.0,0.114,0.9,0.793,0.684,8.61,-4.71,-12871.44,8740.56,14113.52,26023.38,26812.9,7565.58
819,0.0,0.276,0.0,0.83,0.0,13.51,-1.47,-13967.44,9892.56,14061.52,20816.38,25962.9,6217.58
840,0.0,0.154,0.0,0.594,0.008,18.28,1.53,-13831.44,10112.56,12281.52,18199.38,25502.9,5995.58
859,0.0,0.227,0.0,1.0,0.752,23.12,4.68,-16407.44,10980.56,11605.52,17393.38,23038.9,5634.58
879,0.0,0.187,0.0,0.991,0.718,27.57,8.41,-15591.44,11616.56,10601.52,19437.38,22730.9,4482.58
899,0.0,0.187,0.0,0.569,0.684,31.78,12.83,-15703.44,14180.56,10881.52,21086.38,25026.9,4500.58
918,0.0,0.09,0.0,0.929,0.177,36.23,17.01,-16979.44,13324.56,10241.52,21094.38,25194.9,5161.58
939,0.0,0.146,0.711,0.743,0.785,40.24,22.08,-16135.44,14732.56,8137.52,22181.38,25107.9,2882.58
958,0.0,0.146,0.0,0.731,0.11,44.37,27.2,-16707.44,16124.56,5753.52,17328.38,27471.9,-352.42
979,0.0,0.187,0.0,0.755,0.684,48.64,30.92,-20027.44,14780.56,7781.52,15125.38,25293.9,-282.42
1000,0.0,0.0,0.0,0.743,0.0,52.07,34.64,-20407.44,14392.56,8541.52,18561.38,20708.9,-1671.42
1019,0.0,0.106,0.0,0.855,0.0,54.02,38.43,-21855.44,17032.56,8061.52,16749.38,13011.9,-773.42
1040,0.0,0.049,0.0,0.644,0.684,54.6,41.98,-20579.44,17648.56,6497.52,12801.38,5592.9,-529.42
1060,0.0,0.219,0.0,1.0,1.0,54.68,45.61,-18043.44,15832.56,4789.52,11253.38,2941.9,-1174.42
1079,0.0,0.0,0.0,1.0,0.0,55.17,49.27,-17883.44,16568.56,4309.52,11345.38,6875.9,-3391.42
1098,0.0,0.033,0.0,1.0,0.752,55.71,52.02,-18547.44,17964.56,5357.52,8239.38,8349.9,-6143.42
1119,0.0,0.0,0.0,1.0,0.177,55.94,54.5,-17391.44,17780.56,4553.52,5606.38,7685.9,-7486.42
1139,0.0,0.0,0.0,1.0,0.684,56.35,55.9,-19979.44,16540.56,6801.52,3954.38,5176.9,-7142.42
1158,0.0,0.0,0.0,0.979,0.008,55.99,57.09,-20999.44,18156.56,7261.52,2988.38,873.9,-5772.42
1180,0.0,0.0,0.0,1.0,0.684,55.41,58.47,-19079.44,15504.56,5641.52,2427.38,-1990.1,-4906.42
1199,0.0,0.0,0.0,1.0,0.684,54.74,59.69,-18395.44,16460.56,6281.52,2692.38,-834.1,-5621.42
1218,0.0,0.0,0.0,1.0,0.0,53.9,60.4,-17487.44,16708.56,6877.52,692.38,-655.1,-6076.42
1238,0.0,0.0,0.0,1.0,0.0,53.48,60.2,-18863.44,15568.56,8985.52,-193.62,124.9,-4695.42
1258,0.0,0.0,0.0,1.0,0.076,53.06,60.17,-20351.44,15684.56,9661.52,2012.38,-1087.1,-2486.42
1278,0.0,0.0,0.0,1.0,0.076,52.34,60.24,-20635.44,16564.56,9077.52,762.38,-2994.1,-1606.42
1299,0.0,0.0,0.0,1.0,0.144,51.63,60.23,-19075.44,15136.56,8141.52,-260.62,-3461.1,-1824.42
1319,0.0,0.0,0.0,0.979,1.0,51.09,60.38,-17927.44,15908.56,7677.52,-859.62,-670.1,-2575.42
1339,0.0,0.0,0.0,0.966,0.177,51.22,59.92,-20251.44,14808.56,9249.52,-846.62,1024.9,-2181.42
1359,0.0,0.0,1.0,0.979,0.0,50.76,59.53,-22099.44,16604.56,10933.52,423.38,-2159.1,-546.42
1379,0.0,0.0,0.0,0.979,0.11,49.92,59.1,-21131.44,15660.56,9985.52,-550.62,-5361.1,511.58
1399,0.0,0.0,0.0,0.904,1.0,49.26,59.03,-18567.44,15608.56,8613.52,-614.62,-2737.1,-1296.42
1420,0.0,0.0,0.0,0.755,0.144,49.34,58.6,-20631.44,15776.56,8921.52,-2755.62,499.9,-2210.42
1439,0.0,0.0,0.258,0.855,0.684,49.53,58.27,-21871.44,15160.56,9373.52,-769.62,-148.1,-495.42
1460,0.0,0.0,0.0,0.818,0.0,49.4,58.19,-21987.44,15852.56,9361.52,80.38,-1788.1,548.58
1479,0.0,0.0,0.0,0.867,1.0,49.15,58.19,-20959.44,15652.56,8489.52,-870.62,-2387.1,111.58
1500,0.0,0.0,0.0,0.979,0.177,49.18,58.28,-20199.44,15468.56,8065.52,-904.62,-312.1,-921.42
1519,0.0,0.0,1.0,0.892,0.211,49.51,58.35,-21147.44,15116.56,8529.52,171.38,861.9,-898.42
1538,0.0,0.3,0.0,0.743,0.0,49.78,58.54,-22067.44,15916.56,8633.52,453.38,576.9,-463.42
1559,0.0,0.0,0.0,0.842,0.0,49.86,58.63,-22779.44,16100.56,8425.52,-785.62,-1076.1,-239.42
1579,0.0,0.0,0.0,0.755,0.177,49.91,58.84,-21699.44,14888.56,7337.52,-1129.62,-2164.1,-553.42
1599,0.0,0.0,0.0,0.842,0.11,50.08,59.14,-21223.44,15436.56,7285.52,-1040.62,-366.1,-959.42
1619,0.0,0.0,0.0,0.818,0.0,50.53,59.32,-22059.44,15120.56,7785.52,-503.62,822.9,-718.42
1639,0.0,0.0,0.0,1.0,0.684,50.88,59.56,-22731.44,15412.56,8185.52,479.38,297.9,-66.42
1658,0.0,0.0,0.0,0.805,0.684,51.17,59.78,-22863.44,15120.56,7965.52,165.38,-584.1,-101.42
1680,0.0,0.0,0.749,0.755,0.279,51.45,59.96,-22415.44,15032.56,7753.52,-393.62,-376.1,-496.42
1699,0.0,0.0,0.0,0.793,0.0,51.78,60.19,-22063.44,15004.56,7653.52,-214.62,221.9,-482.42
1720,0.0,0.057,0.0,0.842,0.684,52.15,60.42,-22247.44,15168.56,7781.52,-36.62,611.9,-116.42
1739,0.0,0.0,0.0,0.656,0.0,52.63,60.67,-22347.44,14708.56,7449.52,-166.62,903.9,191.58
1758,0.0,0.0,0.0,0.842,0.11,53.1,61.03,-22155.44,14604.56,7345.52,492.38,932.9,491.58
1780,0.0,0.0,0.0,0.855,0.752,53.5,61.43,-22111.44,14872.56,7365.52,646.38,867.9,548.58
1800,0.0,0.0,0.0,0.805,1.0,53.88,61.77,-22263.44,15140.56,7325.52,110.38,1036.9,248.58
1820,0.0,0.0,0.0,0.842,0.211,54.22,62.04,-22223.44,14708.56,7177.52,-392.62,438.9,404.58
1839,0.0,0.0,0.0,0.706,0.211,54.52,62.37,-21799.44,14752.56,7113.52,21.38,542.9,727.58
1858,0.0,0.0,0.0,0.855,0.718,54.82,62.66,-22327.44,14884.56,7465.52,347.38,543.9,342.58
1880,0.0,0.0,0.0,1.0,0.11,55.03,62.87,-22147.44,15272.56,7497.52,-312.62,488.9,20.58
1899,0.0,0.0,0.0,0.78,0.211,55.23,63.04,-22067.44,15172.56,7341.52,-802.62,443.9,-7.42
1919,0.0,0.0,0.0,0.731,0.279,55.43,63.26,-21919.44,14960.56,7201.52,-577.62,331.9,34.58
1939,0.0,0.0,0.0,0.681,0.0,55.73,63.5,-21839.44,14756.56,7181.52,-235.62,988.9,-206.42
1958,0.0,0.0,0.0,0.78,0.684,56.01,63.76,-22279.44,15180.56,7241.52,-334.62,1014.9,-406.42
1979,0.0,0.0,1.0,0.755,0.684,56.19,64.0,-22235.44,14956.56,7109.52,-485.62,196.9,-349.42
1999,0.0,0.09,0.0,0.818,0.11,56.35,64.36,-21783.44,14832.56,6813.52,-163.62,192.9,-325.42
2018,0.0,0.0,0.0,0.768,0.684,56.55,64.64,-21863.44,14940.56,7017.52,-286.62,658.9,-332.42
2038,0.0,0.0,0.07,0.917,0.076,56.83,64.87,-22007.44,14584.56,7221.52,167.38,918.9,-121.42
2059,0.0,0.065,0.0,1.0,0.684,57.07,65.2,-22139.44,14892.56,7221.52,685.38,968.9,129.58
2079,0.0,0.0,0.0,1.0,0.211,57.31,65.42,-22255.44,14992.56,7497.52,496.38,1110.9,184.58
2098,0.0,0.0,0.0,1.0,1.0,57.55,65.75,-21975.44,15072.56,7141.52,468.38,1398.9,65.58
2118,0.0,0.0,0.0,1.0,0.042,57.86,65.89,-22607.44,14932.56,7529.52,214.38,1480.9,22.58
2139,0.0,0.0,0.0,0.743,0.684,58.01,66.05,-22787.44,14940.56,7581.52,432.38,471.9,-3.42
2158,0.0,0.0,0.0,1.0,0.144,58.01,66.28,-22571.44,15000.56,7149.52,39.38,-515.1,-24.42
2179,0.0,0.049,0.0,1.0,0.684,58.02,66.62,-21983.44,14868.56,6601.52,-214.62,-322.1,-257.42
2199,0.0,0.0,0.0,1.0,0.008,58.16,66.89,-21663.44,14544.56,6637.52,-345.62,448.9,-266.42
2219,0.0,0.0,0.0,1.0,0.684,58.39,67.14,-21983.44,14624.56,7069.52,521.38,1118.9,110.58
2239,0.0,0.0,0.0,1.0,0.11,58.54,67.4,-22539.44,15072.56,7153.52,426.38,791.9,264.58
2260,0.0,0.0,0.0,0.855,0.0,58.63,67.68,-22475.44,14928.56,6741.52,-83.62,180.9,260.58
2279,0.0,0.0,0.0,1.0,0.11,58.66,67.9,-21907.44,14596.56,6585.52,-558.62,-173.1,122.58
2299,0.0,0.0,0.0,1.0,0.0,58.71,68.28,-21695.44,14680.56,6213.52,-341.62,22.9,16.58
2319,0.0,0.0,0.0,0.979,0.684,58.84,68.66,-21743.44,14984.56,6297.52,-257.62,947.9,-160.42
2339,0.0,0.0,0.0,1.0,1.0,58.97,68.75,-22639.44,14808.56,7045.52,-392.62,497.9,5.58
2359,0.0,0.122,0.0,0.929,0.718,58.89,68.88,-22735.44,14872.56,6969.52,-292.62,-981.1,277.58
2380,0.0,0.0,0.0,1.0,0.245,58.67,69.12,-22039.44,14884.56,6541.52,-476.62,-1599.1,128.58
2399,0.0,0.0,0.0,0.991,0.042,58.5,69.15,-22031.44,14904.56,6837.52,-1181.62,-1216.1,-237.42
2418,0.0,0.0,0.0,0.904,1.0,58.44,69.28,-21687.44,14572.56,6717.52,-592.62,-637.1,-66.42
2440,0.0,0.0,0.0,0.966,0.718,58.41,69.3,-22139.44,14952.56,7345.52,-198.62,-164.1,69.58
2460,0.0,0.0,0.0,0.979,0.042,58.38,69.31,-22267.44,15080.56,7349.52,-420.62,-168.1,-110.42
2480,0.0,0.0,0.0,1.0,0.008,58.37,69.3,-22399.44,14976.56,7237.52,-673.62,-246.1,-177.42
2500,0.0,0.0,0.0,0.966,0.11,58.37,69.29,-21967.44,14672.56,7141.52,-662.62,-189.1,-228.42
2519,0.0,0.0,0.0,0.706,0.11,58.39,69.25,-22103.44,14968.56,7193.52,-990.62,187.9,-579.42
2539,0.0,0.0,0.0,0.867,0.211,58.43,69.09,-22439.44,14756.56,7369.52,-1240.62,-27.1,-653.42
2560,0.0,0.0,0.0,0.966,0.076,58.46,69.06,-22087.44,14612.56,7125.52,-855.62,-147.1,-413.42
2579,0.0,0.0,0.0,0.966,0.0,58.52,69.07,-22023.44,14660.56,7245.52,-424.62,299.9,-151.42
2600,0.0,0.0,0.0,0.966,0.0,58.61,69.13,-22327.44,14680.56,7305.52,116.38,319.9,140.58
2618,0.0,0.017,0.0,0.867,0.144,58.62,69.22,-22295.44,14968.56,7305.52,62.38,96.9,161.58
2638,0.0,0.0,0.0,0.184,0.177,58.61,69.32,-22299.44,14860.56,7053.52,-196.62,-187.1,38.58
2660,0.0,0.0,0.0,0.966,0.211,58.6,69.42,-22027.44,14680.56,7057.52,-128.62,-188.1,123.58
2679,0.0,0.0,0.0,0.805,0.11,58.63,69.58,-21835.44,14708.56,7041.52,286.38,263.9,184.58
2700,0.0,0.0,0.0,0.805,0.279,58.71,69.6,-22399.44,14908.56,7281.52,-232.62,476.9,152.58
2718,0.0,0.0,0.0,0.731,1.0,58.75,69.68,-22459.44,14624.56,7173.52,117.38,-83.1,388.58
2740,0.0,0.0,0.0,0.395,0.211,58.7,69.83,-22223.44,14912.56,6997.52,126.38,-315.1,502.58
2759,0.0,0.0,0.0,1.0,0.0,58.66,69.96,-22331.44,14736.56,7057.52,200.38,-473.1,490.58
2778,0.0,0.0,0.636,0.904,0.11,58.61,70.09,-22239.44,15092.56,7273.52,465.38,-112.1,442.58
2799,0.0,0.0,0.0,0.805,0.684,58.54,70.16,-22543.44,15276.56,7417.52,228.38,-206.1,408.58
2820,0.0,0.0,0.0,0.78,1.0,58.45,70.18,-22435.44,15176.56,7357.52,-96.62,-416.1,165.58
2840,0.0,0.025,0.0,0.743,0.0,58.38,70.21,-22143.44,14980.56,7329.52,27.38,-256.1,-55.42
2860,0.0,0.26,0.0,0.78,0.752,58.38,70.27,-22035.44,15028.56,7273.52,109.38,283.9,-142.42
2879,0.0,0.284,0.0,0.954,0.0,58.43,70.27,-22335.44,14956.56,7501.52,236.38,471.9,-120.42
2898,0.0,0.0,0.0,0.743,0.684,58.45,70.25,-22423.44,14920.56,7541.52,261.38,184.9,-79.42
2918,0.0,0.0,0.0,1.0,0.11,58.44,70.23,-22395.44,14928.56,7425.52,-30.62,17.9,-98.42
2939,0.0,0.0,0.0,0.793,0.684,58.5,70.29,-22027.44,14464.56,6961.52,-42.62,99.9,-135.42
2958,0.0,0.0,0.0,0.818,0.11,58.56,70.33,-22199.44,14816.56,7217.52,51.38,465.9,-173.42
2979,0.0,0.0,0.032,0.768,0.0,58.61,70.46,-22051.44,14740.56,6973.52,274.38,310.9,-12.42
