timestamp,flex_1,flex_2,flex_3,flex_4,flex_5,kalman_pitch,kalman_roll,acc_x,acc_y,acc_z,gyro_x,gyro_y,gyro_z
0,1.0,0.131,0.0,0.928,0.964,47.08,-82.41,-1411.92,-373.92,17430.32,19.1,417.62,310.6
20,1.0,0.069,0.075,0.527,0.106,16.0,-71.15,-919.92,-1085.92,17386.32,411.1,1109.62,638.6
40,1.0,0.117,1.0,0.469,0.106,0.37,-64.78,-719.92,-1145.92,17814.32,1893.1,3039.62,-108.4
60,1.0,0.808,0.0,0.0,0.0,-7.76,-60.27,-2047.92,-1881.92,19062.32,3174.1,3870.62,-890.4
80,1.0,0.247,0.416,0.909,0.198,-12.94,-56.4,-2411.92,-2145.92,20046.32,5743.1,2347.62,-31.4
100,1.0,0.035,0.841,1.0,0.964,-17.45,-52.78,-1755.92,-1573.92,19630.32,10229.1,187.62,1097.6
120,1.0,0.165,0.0,0.794,1.0,-21.68,-49.11,-895.92,-309.92,19182.32,12704.1,-786.38,2311.6
140,1.0,0.37,0.557,0.0,0.0,-24.55,-46.36,-1543.92,-1021.92,19942.32,10299.1,-342.38,2424.6
160,1.0,0.0,0.671,0.0,0.57,-26.36,-44.17,-2395.92,-1041.92,21578.32,5560.1,79.62,543.6
180,1.0,0.028,0.0,0.0,0.0,-27.54,-42.47,-2999.92,-705.92,23114.32,896.1,142.62,-1311.4
200,0.643,0.637,0.0,0.049,0.222,-28.89,-41.75,-2879.92,158.08,22422.32,-5528.9,-704.38,-2880.4
221,0.658,0.144,0.075,0.46,0.0,-30.1,-42.65,-2463.92,-1545.92,22258.32,-12645.9,-951.38,-3309.4
241,0.516,0.213,1.0,0.68,0.593,-31.42,-44.53,-1283.92,-1977.92,21802.32,-18577.9,-922.38,-3208.4
261,0.538,0.0,0.104,1.0,0.198,-32.41,-46.86,-459.92,-2969.92,21174.32,-20267.9,1492.62,-1941.4
280,0.749,0.172,0.0,0.46,0.0,-32.82,-49.25,-311.92,-3065.92,20966.32,-21503.9,5173.62,775.6
301,0.604,0.0,0.0,0.431,1.0,-32.51,-52.39,-1271.92,-4449.92,20322.32,-25227.9,8281.62,4207.6
321,0.474,0.398,1.0,0.0,0.0,-31.74,-56.14,-1691.92,-5769.92,19870.32,-28937.9,10557.62,6986.6
341,0.459,0.514,0.0,0.0,0.0,-30.73,-60.53,-1815.92,-7653.92,18518.32,-31746.9,11870.62,9035.6
361,0.391,0.0,0.0,0.355,0.0,-29.62,-65.1,-1671.92,-8861.92,17094.32,-32317.9,12858.62,10542.6
381,0.489,0.0,0.0,0.804,0.0,-28.39,-69.55,-1923.92,-9545.92,16190.32,-31956.9,13704.62,11969.6
401,0.241,0.0,0.0,0.288,0.894,-27.09,-73.76,-2755.92,-9337.92,15470.32,-31424.9,14157.62,13944.6
421,0.614,0.035,1.0,0.708,0.222,-26.01,-77.94,-3239.92,-9937.92,14470.32,-31516.9,12556.62,16099.6
441,0.437,0.042,1.0,0.728,0.407,-25.16,-82.12,-3451.92,-10937.92,12878.32,-30911.9,10810.62,17286.6
461,0.513,0.226,0.075,0.737,0.0,-24.69,-86.11,-2879.92,-11065.92,11402.32,-29397.9,9086.62,17428.6
481,0.44,0.459,0.0,0.0,0.0,-24.52,-89.81,-3051.92,-10373.92,10354.32,-27782.9,7497.62,17767.6
501,0.329,0.096,0.0,1.0,0.0,-24.46,-93.07,-3579.92,-10249.92,10350.32,-26206.9,6361.62,19012.6
521,0.67,0.0,0.0,0.938,1.0,-24.82,-96.03,-3347.92,-10817.92,8990.32,-23792.9,3441.62,20320.6
541,0.396,0.883,1.0,0.546,0.082,-25.58,-98.56,-3639.92,-9501.92,8302.32,-20966.9,859.62,20494.6
561,0.513,0.0,0.0,0.374,0.0,-26.54,-100.84,-4487.92,-9221.92,7150.32,-18671.9,-1589.38,20300.6
581,0.356,0.616,0.217,1.0,0.848,-27.82,-102.86,-4891.92,-8897.92,6586.32,-16921.9,-4509.38,20238.6
601,0.349,0.0,0.444,0.0,1.0,-29.16,-104.64,-5407.92,-8445.92,5746.32,-14809.9,-5961.38,20480.6
621,0.445,0.138,0.0,0.0,0.0,-30.4,-106.25,-5831.92,-8025.92,5130.32,-13369.9,-6109.38,20148.6
641,0.435,0.0,0.0,0.039,0.0,-31.38,-107.63,-7151.92,-7941.92,5202.32,-12523.9,-6462.38,19887.6
661,0.484,0.014,0.0,0.747,0.338,-32.48,-109.0,-7315.92,-7373.92,4354.32,-11532.9,-7891.38,19915.6
681,0.435,0.24,1.0,0.336,0.0,-33.53,-110.32,-7535.92,-7489.92,3458.32,-10579.9,-8464.38,19804.6
701,0.398,0.336,1.0,0.0,0.0,-34.24,-111.64,-9075.92,-7057.92,3062.32,-10395.9,-8617.38,19770.6
721,0.285,0.247,0.0,0.469,0.129,-34.94,-113.52,-9475.92,-6629.92,1250.32,-12208.9,-9695.38,19169.6
741,0.432,0.268,0.983,0.431,0.0,-35.51,-115.83,-10335.92,-7377.92,58.32,-15064.9,-10650.38,17567.6
761,0.668,0.028,0.983,0.919,0.245,-35.87,-117.94,-12459.92,-7181.92,358.32,-14764.9,-12337.38,17352.6
781,0.692,0.555,1.0,0.441,0.198,-36.17,-119.16,-14983.92,-4921.92,3234.32,-11270.9,-16208.38,18107.6
801,0.548,0.001,0.813,0.393,0.0,-36.28,-120.13,-16863.92,-3661.92,1878.32,-7111.9,-18430.38,20300.6
821,0.849,0.0,0.0,0.622,1.0,-36.66,-122.67,-16331.92,770.08,278.32,-10605.9,-20823.38,21181.6
841,0.805,1.0,0.0,0.288,0.175,-36.87,-126.06,-18795.92,-813.92,198.32,-19548.9,-23772.38,20966.6
861,0.786,0.801,0.0,1.0,1.0,-36.82,-129.48,-21243.92,-677.92,2990.32,-24725.9,-27778.38,20287.6
881,0.894,0.856,0.0,0.661,0.0,-37.21,-131.02,-21267.92,-2021.92,6302.32,-20721.9,-32097.38,17638.6
901,0.813,0.0,1.0,0.412,0.0,-37.27,-129.4,-19443.92,-497.92,10018.32,-8153.9,-30396.38,14123.6
921,0.587,1.0,0.075,0.316,0.825,-35.24,-123.52,-22247.92,4026.08,13698.32,3380.1,-25366.38,10455.6
941,0.764,0.986,1.0,0.756,0.0,-32.22,-114.44,-25267.92,8698.08,17626.32,7120.1,-17272.38,8307.6
961,0.702,0.575,0.0,1.0,0.0,-28.71,-106.02,-25155.92,9982.08,18778.32,2395.1,-11565.38,5299.6
981,0.788,0.931,0.0,1.0,0.0,-24.46,-98.79,-25219.92,9490.08,18750.32,-2415.9,-5971.38,1175.6
1000,0.8,0.664,1.0,0.622,0.106,-19.17,-92.54,-25687.92,7310.08,17910.32,-1805.9,565.62,-1991.4
1021,0.722,0.89,0.0,0.814,0.802,-12.72,-86.9,-25207.92,5582.08,15126.32,2988.1,7020.62,-4844.4
1040,0.643,1.0,0.0,0.0,0.361,-5.4,-81.81,-25715.92,4950.08,12790.32,9112.1,11963.62,-7114.4
1060,0.663,0.466,0.87,0.135,0.0,2.07,-78.71,-26783.92,3898.08,10194.32,13823.1,14295.62,-7702.4
1080,0.604,0.548,0.075,1.0,1.0,8.96,-77.67,-25263.92,2402.08,6990.32,14379.1,16854.62,-10048.4
1100,0.523,0.0,0.0,1.0,0.0,15.44,-77.69,-26671.92,158.08,4390.32,10574.1,19529.62,-13771.4
1121,0.643,0.459,0.0,0.489,0.0,21.39,-78.58,-28543.92,-1777.92,3586.32,3942.1,18850.62,-16788.4
1140,0.575,0.0,0.0,0.594,0.0,26.33,-79.27,-28327.92,-2609.92,5746.32,670.1,13704.62,-14322.4
1160,0.688,0.0,1.0,0.814,1.0,29.62,-79.89,-25395.92,-4329.92,3374.32,3722.1,8689.62,-9141.4
1180,0.619,0.247,0.0,0.756,0.0,31.85,-80.36,-18595.92,-5793.92,218.32,7540.1,11788.62,-8900.4
1201,0.467,0.596,1.0,0.364,0.0,35.41,-81.19,-22855.92,-3685.92,-489.68,7882.1,16421.62,-12013.4
1220,0.594,0.425,0.0,0.0,0.778,38.88,-81.82,-24411.92,-5829.92,2566.32,3900.1,15715.62,-8669.4
1240,0.079,0.521,0.33,1.0,0.0,41.21,-82.33,-22279.92,-6981.92,2418.32,4196.1,11887.62,-3839.4
1260,0.467,0.247,0.075,0.517,1.0,42.79,-83.02,-19019.92,-6065.92,-241.68,6603.1,11597.62,-2586.4
1281,0.486,0.466,1.0,0.0,0.0,44.47,-84.47,-18335.92,-7257.92,-2805.68,2869.1,14649.62,-7410.4
1301,0.462,0.233,0.0,0.326,0.268,45.68,-86.89,-19975.92,-8981.92,-321.68,-7424.9,10475.62,-8603.4
1321,0.467,0.343,1.0,0.0,0.0,46.07,-88.94,-18103.92,-10345.92,-785.68,-5919.9,7739.62,-2627.4
1340,0.604,0.24,0.0,0.527,0.778,45.94,-90.0,-16055.92,-9945.92,-2425.68,2014.1,6630.62,1311.6
1360,0.543,0.247,1.0,0.0,1.0,45.86,-91.0,-16515.92,-8965.92,-3253.68,3574.1,6699.62,1413.6
1380,0.486,0.904,0.983,0.163,0.407,44.88,-92.93,-16859.92,-9325.92,-2053.68,-4231.9,260.62,1595.6
1401,0.513,0.131,0.217,0.221,0.0,43.26,-94.95,-16607.92,-8817.92,-1961.68,-5101.9,-4137.38,3137.6
1420,0.599,0.5,0.075,0.202,0.0,41.55,-96.53,-17231.92,-7973.92,-2069.68,-2019.9,-5897.38,4466.6
1441,0.482,0.753,0.841,0.0,0.0,39.29,-98.24,-17275.92,-7313.92,-1801.68,-3034.9,-10358.38,5089.6
1461,0.459,0.226,0.387,0.336,1.0,36.65,-100.3,-18183.92,-7757.92,-2205.68,-5871.9,-14499.38,5386.6
1481,0.565,0.0,0.898,0.278,0.686,34.05,-102.41,-19595.92,-7377.92,-609.68,-8038.9,-16830.38,7295.6
1501,0.577,0.89,0.047,0.575,0.0,31.54,-104.81,-21635.92,-4965.92,-533.68,-8872.9,-20110.38,10818.6
1521,0.67,0.459,0.416,0.412,0.291,28.77,-106.84,-21199.92,-5929.92,-61.68,-8357.9,-22090.38,13513.6
1541,0.913,0.569,0.0,0.412,0.0,26.75,-107.78,-23283.92,-4633.92,2694.32,-3570.9,-21534.38,15566.6
1561,0.562,0.445,0.87,1.0,0.0,25.78,-108.0,-23415.92,-1045.92,4202.32,2220.1,-18493.38,13862.6
1580,0.496,0.548,0.16,0.364,0.0,25.37,-107.52,-21959.92,590.08,6350.32,4624.1,-16405.38,11913.6
1600,0.506,0.418,1.0,1.0,0.0,26.18,-107.13,-23263.92,2966.08,8158.32,1925.1,-14002.38,8327.6
1621,0.641,1.0,0.0,0.986,0.918,28.08,-106.14,-26451.92,4282.08,9842.32,-1110.9,-10759.38,4730.6
1641,0.506,0.555,1.0,0.536,0.894,30.24,-104.19,-27219.92,3610.08,11438.32,-2195.9,-7515.38,2737.6
1660,0.526,1.0,0.075,0.412,0.0,32.55,-102.17,-27343.92,2990.08,11550.32,-724.9,-5141.38,1781.6
1680,0.276,0.206,1.0,1.0,0.964,35.03,-100.05,-27515.92,2738.08,11358.32,1585.1,-3267.38,1077.6
1700,0.57,0.466,0.075,0.183,0.0,37.7,-97.67,-28523.92,2782.08,11406.32,3781.1,-1704.38,729.6
1720,0.56,0.671,0.0,0.9,0.0,40.49,-95.84,-28815.92,2682.08,10402.32,4854.1,-420.38,204.6
1740,0.651,0.0,0.33,0.336,0.57,43.38,-94.86,-28243.92,2990.08,9178.32,4826.1,988.62,-622.4
1760,0.71,0.856,1.0,0.594,1.0,46.26,-94.74,-28051.92,2726.08,7954.32,3947.1,2512.62,-1477.4
1780,0.447,0.144,0.586,1.0,1.0,49.03,-95.01,-27855.92,2346.08,7478.32,2540.1,3382.62,-2063.4
1800,0.665,0.0,1.0,1.0,0.0,51.27,-95.74,-27063.92,642.08,6042.32,872.1,3563.62,-2592.4
1820,0.663,0.548,1.0,0.622,0.291,53.05,-96.65,-26491.92,-1029.92,4998.32,-278.9,3613.62,-2838.4
1840,0.418,0.288,1.0,0.747,0.43,54.7,-97.39,-26515.92,-1873.92,4682.32,432.1,4125.62,-3077.4
1860,0.513,0.404,0.728,1.0,0.0,56.21,-98.08,-26539.92,-1557.92,4710.32,940.1,3475.62,-2870.4
1880,0.678,0.466,0.217,0.594,0.129,57.41,-98.89,-26635.92,-1589.92,4558.32,172.1,1958.62,-2153.4
1900,0.717,0.144,1.0,0.747,1.0,58.29,-99.84,-26419.92,-2069.92,4382.32,-1050.9,794.62,-1621.4
1920,0.656,0.5,0.0,0.747,0.0,58.99,-100.76,-25975.92,-2593.92,4350.32,-1502.9,663.62,-1485.4
1940,0.607,0.842,0.0,1.0,1.0,59.66,-101.49,-25939.92,-2701.92,4698.32,-1036.9,768.62,-1309.4
1960,0.619,0.603,1.0,0.575,0.964,60.32,-101.99,-26095.92,-2573.92,5130.32,-216.9,578.62,-849.4
1980,0.54,0.459,0.0,0.594,0.57,60.94,-102.36,-26279.92,-2145.92,5470.32,348.1,21.62,-375.4
2000,0.359,0.582,0.0,0.9,0.0,61.44,-102.77,-26275.92,-2105.92,5406.32,159.1,-521.38,-31.4
2020,0.607,0.678,0.0,0.46,0.338,62.04,-103.17,-26727.92,-1777.92,5650.32,-20.9,-355.38,-126.4
2040,0.513,0.815,1.0,0.431,0.0,62.49,-103.48,-26079.92,-2113.92,5718.32,184.1,-364.38,-128.4
2061,0.518,0.439,0.0,0.154,0.0,62.92,-103.58,-26019.92,-2225.92,5954.32,1039.1,-264.38,-68.4
2080,0.371,0.24,0.0,0.938,0.0,63.45,-103.68,-26179.92,-1649.92,5794.32,1820.1,112.62,-67.4
2100,0.491,0.562,0.983,0.603,0.175,63.99,-103.89,-26287.92,-1529.92,5994.32,773.1,217.62,-144.4
2120,0.572,0.637,0.0,0.986,0.0,64.51,-104.2,-26519.92,-1633.92,6118.32,-204.9,168.62,-169.4
2140,0.518,0.459,1.0,0.689,0.0,64.98,-104.49,-26395.92,-1501.92,6002.32,143.1,103.62,-136.4
2160,0.509,0.48,0.0,0.718,0.894,65.43,-104.64,-26243.92,-1357.92,6038.32,1121.1,137.62,-1.4
2180,0.43,1.0,1.0,0.269,0.0,65.92,-104.82,-26123.92,-877.92,5822.32,1781.1,384.62,-65.4
2200,0.496,0.897,0.586,0.412,0.0,66.43,-105.09,-26171.92,-701.92,5646.32,1568.1,650.62,-149.4
2220,0.513,0.24,0.0,0.718,1.0,66.92,-105.63,-26207.92,-773.92,5394.32,139.1,890.62,-517.4
2240,0.506,1.0,0.075,0.116,0.0,67.35,-106.3,-26423.92,-1265.92,5330.32,-1218.9,1041.62,-672.4
2261,0.555,0.452,0.0,0.0,0.0,67.7,-106.83,-26575.92,-1677.92,5606.32,-1266.9,832.62,-639.4
2280,0.329,1.0,0.0,0.326,1.0,67.93,-107.09,-26695.92,-1857.92,5694.32,153.1,222.62,-86.4
2300,0.437,0.678,0.0,0.613,0.0,68.04,-107.32,-26263.92,-1565.92,5218.32,1438.1,-114.38,100.6
2320,0.496,1.0,0.0,0.0,0.0,68.2,-107.59,-26251.92,-1229.92,5210.32,1377.1,70.62,101.6
2340,0.396,0.309,0.416,1.0,0.964,68.37,-108.03,-26251.92,-1173.92,5362.32,-23.9,160.62,-118.4
2361,0.374,1.0,0.33,0.909,0.0,68.48,-108.6,-26271.92,-1409.92,5438.32,-1320.9,27.62,-246.4
2380,0.521,0.466,0.614,0.0,1.0,68.52,-109.11,-26303.92,-1737.92,5454.32,-1428.9,-51.38,-201.4
2400,0.352,0.534,1.0,0.326,0.0,68.55,-109.39,-26375.92,-1753.92,5738.32,-398.9,-217.38,22.6
2421,0.432,0.042,1.0,0.278,0.0,68.55,-109.5,-26359.92,-1549.92,5878.32,560.1,-432.38,80.6
2440,0.602,0.746,0.0,0.527,0.361,68.56,-109.54,-26127.92,-1293.92,6018.32,948.1,-428.38,96.6
2460,0.452,0.281,0.0,0.775,0.0,68.56,-109.74,-25947.92,-1389.92,5770.32,320.1,-101.38,-21.4
2480,0.391,0.671,0.0,0.0,0.0,68.61,-110.0,-26227.92,-1577.92,5846.32,-471.9,251.62,-56.4
2500,0.315,0.842,0.813,0.183,1.0,68.62,-110.2,-26231.92,-1781.92,5958.32,-491.9,255.62,-51.4
2520,0.582,1.0,0.0,0.068,0.0,68.64,-110.35,-26191.92,-1417.92,5810.32,352.1,142.62,59.6
2540,0.55,0.062,0.0,0.594,0.036,68.65,-110.52,-25983.92,-1109.92,5666.32,718.1,202.62,-63.4
2560,0.379,0.904,0.0,0.689,1.0,68.66,-110.78,-26071.92,-1205.92,5582.32,111.1,291.62,-299.4
2580,0.457,0.808,0.0,0.814,0.0,68.63,-111.1,-26195.92,-1661.92,5526.32,-624.9,440.62,-507.4
2601,0.43,0.37,1.0,0.297,0.0,68.57,-111.31,-26307.92,-1925.92,5726.32,-484.9,382.62,-443.4
2620,0.692,0.589,1.0,0.641,0.361,68.49,-111.43,-26471.92,-1757.92,5778.32,112.1,64.62,-211.4
2640,0.594,1.0,0.0,0.852,0.0,68.39,-111.54,-26311.92,-1389.92,5622.32,707.1,-140.38,-131.4
2660,0.3,0.692,0.018,0.0,0.0,68.33,-111.66,-26247.92,-1181.92,5726.32,651.1,-48.38,-240.4
2680,0.315,0.856,0.813,1.0,0.0,68.27,-111.88,-26283.92,-1309.92,5658.32,-91.9,179.62,-348.4
2700,0.447,0.459,0.0,1.0,1.0,68.18,-112.12,-26279.92,-1637.92,5754.32,-678.9,323.62,-364.4
2720,0.56,0.904,0.0,0.699,0.0,68.07,-112.29,-26367.92,-1905.92,5806.32,-577.9,386.62,-297.4
2740,0.624,0.35,1.0,0.594,0.175,67.95,-112.37,-26403.92,-1753.92,5862.32,-15.9,146.62,-43.4
2760,0.648,0.042,0.955,0.565,0.918,67.79,-112.45,-26163.92,-1513.92,5558.32,696.1,34.62,124.6
2780,0.374,1.0,1.0,1.0,0.0,67.66,-112.6,-25975.92,-1157.92,5506.32,636.1,172.62,34.6
2800,0.356,1.0,0.0,0.613,1.0,67.56,-112.84,-26067.92,-1141.92,5534.32,-70.9,262.62,-126.4
2820,0.513,0.459,0.0,0.0,0.059,67.42,-113.07,-26055.92,-1377.92,5650.32,-480.9,231.62,-207.4
2840,0.31,0.603,0.0,0.756,1.0,67.3,-113.21,-26143.92,-1353.92,5802.32,-176.9,281.62,-279.4
2860,0.447,0.363,0.501,0.173,0.0,67.17,-113.27,-26131.92,-1349.92,5834.32,262.1,250.62,-402.4
2880,0.437,0.0,1.0,0.0,0.0,67.05,-113.27,-26079.92,-1205.92,5958.32,580.1,251.62,-488.4
2900,0.192,0.575,0.0,0.88,0.0,66.93,-113.34,-26083.92,-1253.92,5654.32,614.1,412.62,-689.4
2920,0.469,0.623,0.132,0.469,0.0,66.83,-113.43,-26091.92,-1357.92,5858.32,12.1,577.62,-843.4
2940,0.432,0.575,0.0,0.0,0.43,66.7,-113.55,-26279.92,-1729.92,5734.32,-275.9,714.62,-804.4
2960,0.408,1.0,0.0,1.0,0.755,66.54,-113.56,-26391.92,-1997.92,5790.32,118.1,639.62,-689.4
2980,0.359,0.528,0.472,0.24,1.0,66.35,-113.46,-26291.92,-1901.92,5754.32,977.1,418.62,-492.4
