timestamp,flex_1,flex_2,flex_3,flex_4,flex_5,kalman_pitch,kalman_roll,acc_x,acc_y,acc_z,gyro_x,gyro_y,gyro_z
0,0.0,0.36,1.0,0.96,0.446,-26.09,64.03,-3432.56,-1910.56,21053.2,851.92,-4330.96,-32.98
19,0.0,0.382,1.0,0.987,0.446,-35.71,38.74,-608.56,-666.56,19409.2,2784.92,-5279.96,601.02
39,0.0,0.36,0.896,0.998,0.394,-39.59,25.83,-524.56,-814.56,20537.2,1984.92,-17.96,1049.02
58,0.0,0.36,1.0,1.0,0.184,-41.34,17.67,-1100.56,-1202.56,20629.2,2844.92,2851.04,2250.02
78,0.0,0.352,1.0,0.998,0.394,-43.21,11.7,823.44,-1334.56,18629.2,4191.92,8317.04,3635.02
98,0.0,0.389,1.0,0.9,0.079,-43.84,7.09,2771.44,-1754.56,17985.2,6154.92,17646.04,2257.02
119,0.0,0.323,1.0,0.9,0.026,-36.23,6.11,-11484.56,3961.44,30757.2,-2045.08,23936.04,3462.02
138,0.0,0.316,1.0,0.857,0.026,-34.22,5.52,-6408.56,3169.44,21221.2,-901.08,14798.04,2875.02
158,0.0,0.33,1.0,0.857,0.394,-33.46,3.12,-5260.56,333.44,20549.2,-3609.08,11272.04,3337.02
178,0.0,0.323,1.0,0.879,0.394,-32.49,1.06,-7352.56,-142.56,22269.2,-2601.08,5393.04,4795.02
198,0.0,0.308,1.0,0.873,0.289,-32.45,0.18,-6996.56,1093.44,22549.2,482.92,-10.96,5281.02
218,0.0,0.301,1.0,0.83,0.341,-32.78,-0.48,-7068.56,1497.44,22769.2,361.92,-2873.96,3730.02
239,0.0,0.272,1.0,0.89,0.394,-33.58,-1.14,-5464.56,2209.44,22717.2,-1876.08,-3371.96,1082.02
257,0.0,0.264,1.0,0.895,0.184,-34.32,-2.44,-4580.56,285.44,22709.2,-2478.08,-2372.96,63.02
276,0.0,0.264,1.0,0.884,0.289,-35.06,-3.76,-3856.56,-330.56,21973.2,-1738.08,-942.96,-395.98
295,0.0,0.206,1.0,0.895,0.236,-35.54,-4.78,-4328.56,-70.56,21921.2,-919.08,-38.96,-76.98
314,0.0,0.272,0.995,0.917,0.499,-35.78,-5.69,-4816.56,-158.56,22449.2,-549.08,158.04,563.02
333,0.0,0.257,1.0,0.884,0.709,-35.78,-6.58,-5540.56,-510.56,23069.2,-397.08,127.04,826.02
352,0.0,0.213,1.0,0.917,0.289,-35.82,-7.56,-4740.56,-846.56,23737.2,-1122.08,319.04,294.02
371,0.0,0.242,0.995,0.982,0.0,-35.45,-8.66,-5420.56,-1274.56,25509.2,-2222.08,1024.04,256.02
391,0.0,0.228,1.0,0.998,0.499,-34.66,-10.11,-4944.56,-3058.56,26853.2,-3090.08,3762.04,-589.98
410,0.0,0.206,1.0,1.0,0.394,-33.23,-11.66,-5020.56,-4698.56,28829.2,-3131.08,7517.04,-1196.98
429,0.0,0.22,1.0,0.938,0.341,-31.15,-13.48,-5392.56,-5226.56,29301.2,-5402.08,12287.04,-559.98
448,0.0,0.198,1.0,0.613,0.446,-28.51,-16.96,-5272.56,-8022.56,29901.2,-15701.08,16708.04,141.02
467,0.0,0.213,1.0,0.96,0.289,-25.49,-21.04,-5828.56,-10398.56,31357.2,-19982.08,19340.04,2889.02
486,0.0,0.198,1.0,0.928,0.394,-22.1,-24.73,-5244.56,-12030.56,32017.2,-17919.08,23406.04,8771.02
505,1.0,0.176,0.929,0.857,0.394,-18.17,-27.8,-2180.56,-15366.56,34641.2,-13624.08,29932.04,15696.02
524,1.0,0.147,1.0,0.651,0.656,-13.82,-29.95,-7804.56,-13250.56,34409.2,-9548.08,30874.04,22407.02
543,1.0,0.161,1.0,0.895,0.604,-9.56,-31.3,-8668.56,-12798.56,34057.2,-4789.08,31468.04,28156.02
562,1.0,0.132,1.0,0.895,0.446,-5.22,-31.84,-11708.56,-11162.56,33993.2,-559.08,31468.04,30244.02
581,1.0,0.117,1.0,0.911,0.236,-1.06,-32.0,-12492.56,-7978.56,32177.2,10.92,31468.04,29483.02
601,1.0,0.125,1.0,0.895,0.709,3.4,-32.84,-15064.56,-8826.56,28445.2,-2309.08,31468.04,29505.02
621,1.0,0.095,0.962,0.944,0.394,7.87,-33.1,-16540.56,-6310.56,26841.2,-381.08,31468.04,31283.02
640,1.0,0.073,0.929,0.96,0.709,12.43,-32.64,-19108.56,-3226.56,24081.2,1949.92,31468.04,31377.02
660,0.9,0.073,1.0,0.922,0.551,17.44,-32.21,-20744.56,-3830.56,21457.2,4216.92,31468.04,31968.02
680,0.976,0.059,1.0,0.966,0.289,22.07,-31.22,-19700.56,-4466.56,19609.2,10726.92,31468.04,32897.02
700,0.982,0.037,1.0,1.0,0.604,26.62,-28.12,-19144.56,61.44,18245.2,17684.92,31468.04,32725.02
720,0.952,0.0,1.0,0.982,0.131,31.24,-24.27,-19828.56,1569.44,17533.2,20278.92,31468.04,29032.02
740,0.957,0.007,1.0,0.938,0.394,36.39,-20.16,-23328.56,3421.44,17429.2,18465.92,31468.04,24302.02
760,0.964,0.0,1.0,1.0,0.499,41.53,-16.58,-23352.56,3325.44,16177.2,15534.92,31468.04,19938.02
780,0.969,0.0,1.0,1.0,0.236,46.67,-12.8,-26116.56,4629.44,15549.2,13526.92,30212.04,16419.02
800,0.957,0.0,1.0,0.933,0.656,50.94,-8.5,-26508.56,6153.44,14701.2,12771.92,25794.04,14580.02
820,0.946,0.0,1.0,0.938,0.289,54.61,-4.22,-26120.56,6397.44,13665.2,10996.92,22772.04,11724.02
839,0.939,0.0,0.798,0.9,0.184,57.81,0.32,-26612.56,6985.44,12513.2,9517.92,20088.04,8965.02
859,0.966,0.0,1.0,0.966,0.394,60.37,5.05,-26216.56,7369.44,11681.2,8819.92,17127.04,7639.02
879,0.976,0.0,1.0,0.917,0.079,62.33,9.83,-25992.56,7273.44,10937.2,8050.92,13637.04,5592.02
899,0.8,0.0,1.0,0.922,0.079,63.81,14.71,-24792.56,6985.44,10233.2,7602.92,11316.04,3662.02
919,0.888,0.0,1.0,0.928,0.236,65.0,19.51,-25084.56,7077.44,9901.2,7017.92,9678.04,1905.02
939,0.889,0.0,1.0,0.938,0.289,65.96,23.92,-25280.56,6669.44,9953.2,6123.92,7802.04,942.02
959,0.888,0.0,1.0,0.938,0.656,66.37,27.95,-25248.56,7129.44,10197.2,5428.92,5197.04,730.02
979,0.889,0.0,1.0,0.879,0.0,66.44,31.55,-24624.56,7029.44,10385.2,4399.92,3538.04,-109.98
999,0.898,0.0,1.0,0.944,0.499,66.4,34.78,-25476.56,7109.44,10669.2,3817.92,2263.04,-649.98
1019,0.941,0.0,1.0,0.852,0.289,66.02,37.81,-24712.56,6633.44,10557.2,3474.92,-125.96,-184.98
1039,0.992,0.0,1.0,0.922,1.0,65.77,40.37,-24536.56,6313.44,11113.2,3909.92,553.04,-878.98
1059,0.975,0.0,1.0,0.911,0.289,65.33,42.48,-25944.56,7281.44,11457.2,1295.92,-397.96,-1718.98
1079,0.896,0.0,1.0,0.938,0.0,64.88,44.42,-25528.56,6813.44,11221.2,600.92,-1056.96,-1062.98
1099,0.895,0.0,1.0,0.922,0.184,64.61,46.25,-25944.56,6409.44,11205.2,949.92,-911.96,104.02
1119,0.896,0.0,1.0,0.933,0.394,64.26,48.21,-26168.56,7141.44,11165.2,1195.92,-680.96,363.02
1139,0.896,0.0,1.0,0.944,0.341,63.97,50.23,-25796.56,7041.44,10593.2,207.92,-561.96,-418.98
1159,0.904,0.0,1.0,0.938,0.289,63.97,52.0,-26804.56,6685.44,10661.2,-303.08,164.04,-810.98
1179,0.975,0.0,1.0,0.955,0.919,63.92,53.81,-26944.56,6941.44,10621.2,109.92,0.04,191.02
1199,1.0,0.0,1.0,0.911,1.0,63.93,55.79,-26452.56,7029.44,10257.2,285.92,700.04,165.02
1219,0.992,0.0,1.0,0.835,0.866,64.19,57.94,-27280.56,7121.44,9749.2,41.92,1927.04,-478.98
1239,0.98,0.0,1.0,0.835,0.394,64.52,60.26,-27944.56,7149.44,9109.2,-704.08,2083.04,-281.98
1259,0.982,0.0,1.0,0.825,0.289,64.92,62.68,-27628.56,6897.44,8777.2,-766.08,2522.04,916.02
1279,1.0,0.0,1.0,0.835,0.289,65.52,65.2,-28132.56,6701.44,8541.2,-391.08,3465.04,1300.02
1299,0.985,0.0,1.0,0.868,0.761,65.84,67.67,-29728.56,8057.44,8441.2,173.92,2653.04,1132.02
1319,0.911,0.0,1.0,0.825,0.079,65.93,70.11,-29056.56,8009.44,8261.2,104.92,1554.04,1034.02
1339,1.0,0.0,1.0,1.0,0.604,65.93,72.27,-29152.56,8581.44,8557.2,-2.08,1581.04,98.02
1359,0.996,0.0,1.0,0.862,0.341,65.91,74.38,-30064.56,8505.44,8249.2,-623.08,850.04,-502.98
1379,0.944,0.0,1.0,0.96,1.0,65.73,76.36,-30024.56,8297.44,8445.2,-328.08,-481.96,194.02
1399,0.934,0.0,1.0,0.998,0.341,65.5,78.57,-28984.56,8013.44,7817.2,-322.08,-617.96,-146.98
1418,0.921,0.0,1.0,0.96,0.499,65.37,80.69,-29712.56,8077.44,7557.2,-712.08,-271.96,-606.98
1437,0.989,0.0,0.929,1.0,0.394,65.26,82.76,-29852.56,7913.44,7625.2,-291.08,-459.96,210.02
1457,1.0,0.0,1.0,0.993,0.446,65.07,84.72,-29836.56,8393.44,7885.2,353.92,-541.96,655.02
1477,0.953,0.0,1.0,1.0,0.656,64.85,86.45,-29976.56,8285.44,8037.2,-194.08,-1019.96,67.02
1497,1.0,0.0,1.0,0.906,0.394,64.61,88.05,-29348.56,8109.44,8273.2,142.92,-1165.96,-67.98
1517,1.0,0.0,1.0,0.862,0.184,64.45,89.45,-28416.56,7865.44,8425.2,-334.08,-520.96,-773.98
1536,0.944,0.0,1.0,0.83,0.289,64.53,90.9,-29516.56,7313.44,8185.2,-276.08,-138.96,-843.98
1555,1.0,0.0,1.0,0.852,0.236,64.67,92.4,-29512.56,7217.44,8097.2,247.92,140.04,186.02
1575,0.976,0.0,0.995,0.862,0.814,64.78,93.81,-29840.56,7345.44,8333.2,652.92,-50.96,1134.02
1595,0.944,0.0,1.0,0.825,0.0,64.72,95.12,-29604.56,7701.44,8249.2,289.92,-661.96,976.02
1615,0.943,0.0,0.929,0.884,0.394,64.65,96.56,-28920.56,7449.44,7617.2,-622.08,-578.96,-483.98
1634,1.0,0.0,1.0,0.873,0.289,64.64,97.71,-29684.56,7385.44,7889.2,-926.08,-789.96,-529.98
1653,0.916,0.0,1.0,0.873,0.236,64.57,98.9,-29248.56,7341.44,7937.2,-106.08,-1071.96,868.02
1673,0.925,0.0,1.0,0.911,0.0,64.6,100.1,-29584.56,7249.44,8285.2,1148.92,-752.96,1242.02
1693,0.916,0.0,0.929,0.895,0.604,64.54,101.07,-29840.56,7769.44,8393.2,607.92,-889.96,484.02
1713,0.916,0.0,1.0,0.917,0.394,64.47,101.88,-29132.56,7773.44,8473.2,116.92,-595.96,-390.98
1733,0.916,0.0,0.995,1.0,0.131,64.51,102.48,-29984.56,7713.44,8733.2,-105.08,-460.96,-726.98
1752,0.914,0.0,1.0,0.846,0.394,64.62,103.16,-29788.56,7069.44,8653.2,554.92,-661.96,-106.98
1772,0.928,0.0,1.0,0.825,0.446,64.73,103.8,-29560.56,7285.44,8761.2,683.92,-263.96,-28.98
1792,0.911,0.0,1.0,0.852,0.394,64.86,104.33,-29220.56,7589.44,8757.2,260.92,415.04,-473.98
1812,0.911,0.0,1.0,0.852,1.0,65.07,104.69,-29956.56,7769.44,8829.2,-340.08,836.04,-848.98
1832,0.916,0.0,1.0,0.846,0.446,65.3,105.14,-29928.56,7213.44,8625.2,-402.08,434.04,-613.98
1852,0.916,0.0,1.0,0.862,0.341,65.38,105.82,-30044.56,7573.44,8233.2,173.92,-131.96,196.02
1872,0.916,0.0,1.0,0.852,0.236,65.36,106.47,-29744.56,7441.44,8185.2,39.92,-806.96,180.02
1892,0.916,0.0,1.0,0.873,0.341,65.22,107.04,-29112.56,7773.44,8005.2,-584.08,-961.96,-686.98
1911,0.916,0.0,1.0,0.852,0.184,65.29,107.43,-29288.56,7205.44,8401.2,-303.08,-450.96,-793.98
1930,0.918,0.0,1.0,0.873,0.499,65.32,107.85,-29864.56,7501.44,8357.2,87.92,-578.96,111.02
1950,0.914,0.0,1.0,0.857,0.341,65.37,108.16,-29596.56,7185.44,8653.2,140.92,-734.96,544.02
1970,0.916,0.0,1.0,0.862,0.289,65.45,108.32,-29900.56,7017.44,8861.2,-18.08,-823.96,409.02
1990,0.916,0.0,1.0,0.852,0.184,65.43,108.44,-30104.56,7449.44,8829.2,-227.08,-1171.96,234.02
2010,0.916,0.0,1.0,0.852,0.079,65.39,108.54,-29760.56,7365.44,8641.2,-870.08,-1247.96,-278.98
2029,0.912,0.0,1.0,0.862,0.919,65.42,108.72,-29884.56,7141.44,8397.2,-818.08,-1152.96,-21.98
2048,0.914,0.0,1.0,0.852,0.184,65.52,108.75,-29440.56,7041.44,8829.2,-278.08,-598.96,238.02
2068,0.957,0.0,1.0,0.9,0.236,65.55,108.74,-29884.56,7533.44,8889.2,-433.08,-656.96,257.02
2088,1.0,0.0,1.0,0.966,0.499,65.58,108.79,-29848.56,7613.44,8761.2,-267.08,-557.96,485.02
2108,0.939,0.0,1.0,0.917,0.341,65.59,108.71,-30504.56,8125.44,9065.2,-85.08,-495.96,423.02
2128,1.0,0.0,1.0,0.933,0.604,65.5,108.48,-29944.56,8201.44,9045.2,-1127.08,-820.96,-856.98
2147,1.0,0.0,1.0,0.938,0.184,65.43,108.2,-29812.56,8117.44,9009.2,-1370.08,-753.96,-1527.98
2166,0.921,0.0,1.0,0.949,0.026,65.46,107.91,-29564.56,7777.44,9165.2,-886.08,-398.96,-1402.98
2185,0.996,0.0,1.0,0.949,0.236,65.64,107.72,-29612.56,7385.44,9209.2,-29.08,261.04,-967.98
2205,1.0,0.0,1.0,0.938,0.026,65.85,107.67,-30000.56,7369.44,9069.2,252.92,239.04,-298.98
2225,0.939,0.0,1.0,0.982,0.236,65.99,107.63,-29956.56,7333.44,8857.2,-352.08,-163.96,-287.98
2244,0.964,0.0,1.0,0.998,0.394,66.13,107.56,-29604.56,7277.44,8789.2,-460.08,-7.96,-464.98
2263,1.0,0.0,1.0,1.0,0.184,66.39,107.39,-29800.56,7137.44,9149.2,107.92,536.04,-127.98
2283,0.992,0.0,1.0,0.971,0.131,66.59,107.36,-30272.56,7589.44,9085.2,694.92,519.04,378.02
2303,1.0,0.0,1.0,0.884,0.446,66.68,107.3,-30112.56,7589.44,8961.2,204.92,-67.96,74.02
2323,0.911,0.0,1.0,0.857,0.184,66.8,107.22,-29608.56,7189.44,8825.2,-416.08,-162.96,-450.98
2342,0.912,0.0,1.0,0.825,0.394,66.96,107.05,-29512.56,7145.44,9025.2,-40.08,169.04,-323.98
2362,1.0,0.0,1.0,0.825,0.499,67.16,106.88,-29520.56,7353.44,9273.2,565.92,776.04,-147.98
2382,0.946,0.0,1.0,0.825,0.446,67.35,106.62,-30316.56,7413.44,9341.2,290.92,436.04,-78.98
2402,0.886,0.0,1.0,0.819,0.341,67.52,106.42,-29496.56,6913.44,9129.2,-7.08,106.04,-231.98
2422,0.916,0.0,1.0,0.814,0.394,67.77,106.18,-29896.56,6769.44,9149.2,-195.08,386.04,-66.98
2442,0.994,0.0,1.0,0.808,0.184,67.92,106.12,-29772.56,7253.44,8877.2,182.92,362.04,426.02
2462,0.992,0.0,1.0,0.797,0.341,68.02,106.03,-29568.56,7489.44,8949.2,278.92,368.04,395.02
2482,1.0,0.0,1.0,0.803,0.604,68.13,105.9,-29936.56,7257.44,8941.2,1.92,85.04,244.02
2502,0.992,0.0,1.0,0.808,0.289,68.15,105.88,-29724.56,7525.44,8697.2,35.92,-83.96,302.02
2522,1.0,0.0,1.0,0.792,0.709,68.16,105.79,-29688.56,7613.44,8761.2,-118.08,-14.96,184.02
2542,1.0,0.0,1.0,0.787,0.656,68.21,105.62,-29864.56,7477.44,8913.2,-211.08,-2.96,105.02
2562,0.911,0.0,1.0,0.765,0.656,68.17,105.58,-29528.56,7637.44,8697.2,50.92,-293.96,323.02
2582,0.912,0.0,1.0,0.797,0.341,68.17,105.42,-29272.56,7729.44,8841.2,-234.08,221.04,-291.98
2602,0.912,0.0,1.0,0.765,0.289,68.23,105.24,-30236.56,7561.44,8873.2,-274.08,0.04,-428.98
2622,0.92,0.0,1.0,0.787,0.551,68.2,105.19,-29264.56,7365.44,8721.2,100.92,-436.96,39.02
2642,0.916,0.0,1.0,0.765,0.446,68.23,105.1,-29296.56,7209.44,8873.2,397.92,-167.96,399.02
2662,0.916,0.0,1.0,0.743,0.446,68.26,104.9,-29728.56,7397.44,9041.2,247.92,-134.96,477.02
2682,0.916,0.0,1.0,0.77,0.446,68.27,104.7,-29732.56,7449.44,8981.2,34.92,-265.96,374.02
2702,0.916,0.0,1.0,0.77,0.394,68.26,104.44,-29956.56,7533.44,9005.2,-204.08,-381.96,14.02
2722,0.911,0.0,1.0,0.77,0.604,68.21,104.22,-29484.56,7633.44,8961.2,-109.08,-334.96,-358.98
2741,0.916,0.0,1.0,0.749,0.446,68.23,104.05,-29860.56,7529.44,8929.2,211.92,-184.96,-279.98
2761,1.0,0.0,1.0,0.77,0.446,68.26,103.84,-29744.56,7309.44,9105.2,435.92,-237.96,-180.98
2781,1.0,0.0,1.0,0.776,0.079,68.36,103.55,-29868.56,7029.44,9193.2,186.92,-178.96,-184.98
2801,0.964,0.0,0.896,0.738,0.289,68.47,103.3,-29924.56,7061.44,9049.2,-42.08,-54.96,213.02
2821,0.884,0.0,1.0,0.77,0.499,68.56,103.07,-30108.56,7229.44,9049.2,57.92,-16.96,732.02
2841,0.998,0.0,1.0,0.77,0.236,68.65,102.91,-29520.56,7457.44,8985.2,411.92,418.04,736.02
2861,0.978,0.0,1.0,0.759,0.341,68.7,102.72,-30376.56,8013.44,9105.2,556.92,466.04,359.02
2881,0.916,0.0,1.0,0.781,0.499,68.71,102.47,-29720.56,7481.44,8997.2,-221.08,-88.96,-302.98
2900,0.932,0.0,1.0,0.792,0.289,68.79,102.21,-29496.56,7261.44,8977.2,-214.08,253.04,-348.98
2920,0.98,0.0,1.0,0.792,0.341,68.93,101.95,-30092.56,7121.44,9137.2,112.92,312.04,377.02
2940,0.964,0.0,1.0,0.776,0.446,68.98,101.84,-29852.56,7425.44,8793.2,22.92,115.04,624.02
2960,0.944,0.0,1.0,0.787,0.131,69.04,101.7,-29568.56,7325.44,8801.2,-99.08,296.04,352.02
2980,1.0,0.0,1.0,0.765,0.341,69.02,101.59,-29624.56,7753.44,8709.2,-151.08,161.04,155.02
