timestamp,flex_1,flex_2,flex_3,flex_4,flex_5,kalman_pitch,kalman_roll,acc_x,acc_y,acc_z,gyro_x,gyro_y,gyro_z
0,1.0,0.667,0.512,0.37,1.0,-220.36,-45.49,274.4,1087.12,15985.36,416.92,-2609.42,-1254.94
19,1.0,0.653,0.615,0.363,0.593,-167.56,-41.0,1546.4,975.12,15657.36,500.92,-1057.42,-2101.94
38,0.0,0.633,0.512,0.352,0.0,-140.19,-38.73,1826.4,683.12,16137.36,279.92,874.58,-2190.94
58,0.0,0.619,0.512,0.356,0.654,-122.56,-36.65,790.4,795.12,16905.36,1072.92,1208.58,-447.94
78,0.0,0.613,0.537,0.356,0.593,-110.52,-35.24,818.4,907.12,16481.36,1702.92,1633.58,221.06
98,0.0,0.565,0.512,0.352,0.413,-101.61,-33.62,1370.4,1687.12,16517.36,748.92,2875.58,88.06
118,0.0,0.585,0.512,0.359,0.352,-93.63,-33.68,786.4,-332.88,17153.36,-541.08,3983.58,365.06
137,0.0,0.647,0.512,0.352,0.172,-86.53,-33.35,418.4,-676.88,18433.36,425.92,4238.58,105.06
157,0.0,0.585,0.512,0.356,0.473,-81.01,-33.37,1310.4,-1024.88,17557.36,1547.92,2083.58,112.06
178,0.0,0.579,0.537,0.338,0.593,-75.55,-33.15,-1677.6,-1728.88,18421.36,3660.92,-1392.42,3252.06
196,0.0,0.572,0.512,0.345,0.413,-70.96,-32.6,-137.6,-3152.88,19761.36,7998.92,-3674.42,4851.06
215,0.0,0.558,0.512,0.338,0.654,-66.81,-32.04,402.4,-4652.88,20305.36,11322.92,-4900.42,7787.06
236,0.0,0.592,0.512,0.338,0.593,-62.56,-30.55,1686.4,-5224.88,21229.36,17904.92,-1525.42,10665.06
254,0.0,0.647,0.512,0.359,0.533,-57.83,-28.14,50.4,-3948.88,22069.36,23134.92,3047.58,14204.06
274,0.0,0.769,0.563,0.203,0.413,-53.04,-24.42,146.4,-1764.88,23317.36,26831.92,5902.58,17087.06
295,0.0,0.81,0.589,0.409,0.473,-48.03,-21.21,-1073.6,-3036.88,24373.36,27916.92,6632.58,19201.06
314,0.0,0.877,0.563,0.434,0.172,-43.65,-14.97,1386.4,7399.12,26577.36,26818.92,10620.58,16415.06
334,0.0,0.891,0.537,0.459,0.654,-38.08,-12.22,-2289.6,3939.12,29701.36,12166.92,12083.58,15582.06
354,0.0,0.939,0.563,0.48,0.413,-32.39,-10.87,-3645.6,-572.88,30821.36,12605.92,13170.58,14819.06
374,0.0,0.972,0.563,0.526,0.533,-27.7,-10.49,-1401.6,-2668.88,29477.36,11701.92,14243.58,15238.06
394,0.0,1.0,0.77,0.551,0.473,-23.69,-9.73,-129.6,-1376.88,27257.36,14290.92,17440.58,15249.06
413,0.0,1.0,0.822,0.572,0.593,-18.94,-8.3,-3325.6,-28.88,29745.36,15763.92,19401.58,15333.06
434,0.0,1.0,0.873,0.604,0.593,-14.24,-7.04,-4629.6,-372.88,29657.36,16721.92,20858.58,16062.06
453,0.0,1.0,0.925,0.608,0.774,-10.02,-5.72,-3981.6,787.12,29641.36,16144.92,22672.58,14533.06
473,0.0,1.0,0.848,0.604,0.834,-5.92,-4.96,-6389.6,-244.88,29981.36,15187.92,20907.58,14240.06
495,0.0,1.0,0.925,0.594,0.593,-2.83,-4.47,-6289.6,-2380.88,28669.36,19168.92,17655.58,13974.06
513,0.0,1.0,0.848,0.565,0.714,-0.45,-2.91,-5505.6,207.12,27397.36,23467.92,18203.58,12858.06
533,0.0,1.0,0.899,0.547,0.774,2.04,-0.52,-5713.6,3383.12,27397.36,23929.92,21584.58,9736.06
553,0.0,1.0,0.899,0.583,0.593,4.35,1.53,-4989.6,4031.12,28981.36,21776.92,22954.58,8083.06
573,0.0,1.0,0.899,0.597,0.774,6.88,3.01,-7489.6,5035.12,27357.36,17229.92,23307.58,5666.06
593,0.0,1.0,0.925,0.782,0.895,9.7,3.52,-10525.6,4799.12,27961.36,11794.92,21291.58,4525.06
613,0.0,1.0,0.899,0.679,0.714,11.63,3.53,-9545.6,3279.12,26549.36,12287.92,19844.58,4391.06
633,0.0,1.0,0.925,0.757,1.0,13.35,4.27,-10517.6,4935.12,25481.36,14188.92,18481.58,4363.06
653,0.0,1.0,0.951,0.81,1.0,14.94,5.59,-12021.6,6491.12,24601.36,15148.92,15865.58,4609.06
673,0.0,1.0,0.925,0.707,0.593,16.2,6.87,-12613.6,7099.12,22565.36,13777.92,13882.58,3552.06
693,0.0,1.0,0.925,0.771,0.593,17.27,7.87,-13257.6,7303.12,20389.36,11211.92,11908.58,2109.06
713,0.0,1.0,0.951,0.743,1.0,18.31,9.01,-14037.6,7859.12,20233.36,10981.92,10286.58,2418.06
733,0.0,1.0,0.899,0.775,0.593,19.22,10.09,-14609.6,7335.12,20325.36,12991.92,8491.58,2804.06
753,0.0,1.0,0.951,0.696,0.593,19.93,11.52,-15129.6,7455.12,19525.36,15452.92,5891.58,2910.06
773,0.0,1.0,0.822,0.736,0.654,20.56,14.11,-15705.6,8907.12,18533.36,19167.92,3650.58,282.06
794,0.0,1.0,1.0,0.757,0.714,19.75,17.27,-13289.6,10451.12,17537.36,18629.92,1984.58,-3672.94
813,0.0,1.0,0.925,0.878,1.0,18.07,20.05,-11905.6,11319.12,16717.36,13697.92,264.58,-5581.94
833,0.0,1.0,0.822,0.757,0.654,15.58,23.23,-10509.6,12411.12,13953.36,8124.92,-280.42,-7074.94
853,0.0,1.0,0.925,0.881,0.654,12.74,25.21,-9845.6,11503.12,13189.36,989.92,120.58,-7595.94
874,0.0,1.0,0.925,0.888,0.654,10.78,23.05,-12053.6,7039.12,14973.36,-4995.08,-2768.42,-7743.94
894,0.0,1.0,0.951,0.853,1.0,7.97,19.9,-12081.6,5255.12,14009.36,-4094.08,-8457.42,-11065.94
913,0.0,1.0,0.848,0.888,0.714,4.27,18.28,-10849.6,5903.12,14641.36,1673.92,-11255.42,-9876.94
933,0.0,1.0,0.925,0.966,0.895,1.58,17.89,-10905.6,6191.12,17549.36,9247.92,-9910.42,-6151.94
953,0.0,1.0,1.0,0.92,0.895,0.6,17.92,-13345.6,6659.12,20785.36,11689.92,-7517.42,-2803.94
973,0.0,1.0,0.925,0.941,0.955,0.4,17.23,-14157.6,5719.12,20841.36,9005.92,-4584.42,1184.06
993,0.0,1.0,0.925,0.938,0.955,1.04,17.56,-14101.6,9831.12,18701.36,4207.92,1195.58,3710.06
1013,0.0,1.0,0.925,0.913,1.0,1.94,19.18,-13437.6,15971.12,18589.36,1189.92,5159.58,3050.06
1033,0.0,0.789,1.0,0.838,0.774,2.94,20.5,-14469.6,15403.12,17145.36,-1727.08,4010.58,577.06
1053,0.0,0.945,0.899,0.849,0.834,3.82,21.48,-15585.6,14035.12,19085.36,1480.92,1382.58,140.06
1073,0.0,1.0,0.925,0.785,0.774,4.57,23.05,-15969.6,15183.12,20317.36,5809.92,620.58,1483.06
1093,0.0,1.0,0.796,0.838,0.834,5.23,24.38,-16077.6,15867.12,21317.36,4970.92,468.58,1804.06
1113,0.0,0.972,1.0,0.849,1.0,5.86,25.24,-15941.6,16591.12,20965.36,936.92,843.58,977.06
1133,0.0,0.993,0.512,0.831,1.0,6.46,25.3,-15589.6,16031.12,20037.36,-4825.08,1293.58,-1296.94
1153,0.0,1.0,0.925,0.807,0.834,7.07,25.32,-15929.6,15099.12,20217.36,-3644.08,905.58,-1147.94
1173,0.0,1.0,0.899,0.838,0.714,7.43,25.8,-15793.6,15907.12,21697.36,-56.08,96.58,293.06
1193,0.0,0.979,0.77,0.789,0.895,7.59,27.16,-15249.6,18683.12,21949.36,3406.92,0.58,848.06
1213,0.0,1.0,0.951,0.814,1.0,7.56,28.6,-14381.6,21155.12,21569.36,1778.92,108.58,-279.94
1233,0.0,0.979,0.925,0.775,0.955,7.54,29.59,-14045.6,21803.12,20521.36,-2470.08,600.58,-2979.94
1253,0.0,1.0,0.873,0.785,0.834,7.53,30.14,-14201.6,21559.12,20089.36,-5471.08,455.58,-5695.94
1273,0.0,1.0,0.925,0.778,0.774,7.41,30.5,-14301.6,19391.12,20421.36,-4518.08,-470.42,-6587.94
1293,0.0,1.0,0.822,0.771,0.895,7.21,31.54,-14337.6,19603.12,20277.36,-23.08,-1134.42,-6491.94
1313,0.0,1.0,0.899,0.76,0.834,6.75,33.07,-13969.6,20827.12,20053.36,2432.92,-2396.42,-6937.94
1333,0.0,1.0,0.899,0.792,0.714,6.16,34.37,-13545.6,19699.12,19221.36,1447.92,-3001.42,-8522.94
1353,0.0,0.939,0.822,0.753,0.774,5.53,35.26,-13849.6,18583.12,19509.36,387.92,-3910.42,-9711.94
1373,0.0,0.993,0.848,0.75,0.895,4.78,35.95,-13825.6,17523.12,20085.36,911.92,-5005.42,-10550.94
1394,0.0,0.905,0.925,0.739,0.895,3.95,36.79,-13417.6,16811.12,19761.36,2614.92,-5231.42,-11346.94
1414,0.0,0.979,0.925,0.728,0.895,3.27,37.6,-13985.6,16223.12,20209.36,3860.92,-5371.42,-12141.94
1434,0.0,0.945,0.925,0.764,0.714,2.6,38.22,-14525.6,15987.12,20321.36,3209.92,-6460.42,-12856.94
1454,0.0,0.979,1.0,0.771,0.774,1.74,38.44,-14681.6,14639.12,20865.36,2797.92,-8316.42,-13053.94
1474,0.0,1.0,1.0,0.789,0.774,0.69,38.5,-14193.6,13843.12,21449.36,3312.92,-9278.42,-12950.94
1494,0.0,0.925,0.796,0.792,0.955,-0.27,38.4,-14337.6,13191.12,21849.36,3401.92,-9257.42,-13084.94
1514,0.0,0.986,0.667,0.775,0.955,-1.06,37.99,-14889.6,12115.12,22785.36,3355.92,-9374.42,-13376.94
1534,0.0,0.986,0.899,0.824,0.895,-1.84,37.55,-14657.6,11811.12,23101.36,3649.92,-9244.42,-13307.94
1554,0.0,0.932,0.744,0.807,0.955,-2.4,36.81,-15065.6,10743.12,23481.36,3037.92,-8634.42,-13387.94
1574,0.0,0.966,0.641,0.775,0.774,-2.86,35.53,-15469.6,8755.12,24089.36,2104.92,-8777.42,-12892.94
1594,0.0,0.959,1.0,0.775,0.593,-3.15,34.19,-15949.6,7587.12,24701.36,3098.92,-8410.42,-11103.94
1613,0.0,0.925,1.0,0.764,0.593,-3.27,33.03,-16289.6,7591.12,24973.36,4011.92,-7834.42,-9274.94
1633,0.0,0.986,0.925,0.736,0.654,-3.21,32.16,-16757.6,9199.12,24665.36,3438.92,-7322.42,-8219.94
1654,0.0,0.986,0.796,0.75,0.714,-3.16,31.31,-16445.6,10679.12,23833.36,1197.92,-7119.42,-7731.94
1674,0.0,0.986,0.873,0.721,0.714,-3.1,30.11,-16173.6,9963.12,22973.36,-1004.08,-6958.42,-8133.94
1693,0.0,1.0,0.873,0.714,0.955,-2.88,28.66,-16397.6,8531.12,23245.36,-1145.08,-6437.42,-8288.94
1711,0.0,0.979,0.796,0.721,0.714,-2.43,27.44,-16913.6,8727.12,24169.36,42.92,-5178.42,-7697.94
1731,0.0,0.939,0.925,0.718,0.774,-1.83,26.35,-17405.6,9243.12,23589.36,-169.08,-4768.42,-6558.94
1750,0.0,0.959,1.0,0.707,0.654,-1.22,25.3,-17573.6,9007.12,23229.36,-223.08,-4916.42,-5694.94
1769,0.0,0.959,0.873,0.725,0.834,-0.71,24.33,-16829.6,8807.12,22877.36,157.92,-4622.42,-5273.94
1789,0.0,0.966,0.899,0.736,0.895,-0.27,23.29,-16989.6,8767.12,23157.36,-339.08,-4979.42,-4610.94
1808,0.0,0.966,0.925,0.743,0.714,0.01,22.27,-16345.6,8667.12,24105.36,-302.08,-5093.42,-3923.94
1828,0.0,0.945,0.693,0.714,0.714,0.25,21.26,-16269.6,9127.12,24325.36,-879.08,-4961.42,-3420.94
1848,0.0,0.966,0.925,0.728,0.232,0.65,20.63,-15885.6,10827.12,23957.36,-817.08,-3392.42,-3666.94
1869,0.0,0.966,1.0,0.707,0.714,1.29,19.73,-16649.6,10035.12,24201.36,-1827.08,-2524.42,-4578.94
1888,0.0,0.911,0.718,0.739,0.593,1.9,19.1,-16453.6,8703.12,24229.36,1314.92,-2424.42,-3801.94
1908,0.0,0.959,0.796,0.764,0.714,2.46,19.02,-16429.6,10379.12,24189.36,2966.92,-2497.42,-2844.94
1928,0.0,0.966,0.899,0.771,0.593,3.02,18.98,-16181.6,11331.12,23713.36,1829.92,-1971.42,-2735.94
1948,0.0,0.972,0.822,0.75,0.593,3.61,18.61,-16173.6,10183.12,23373.36,750.92,-1823.42,-2485.94
1968,0.0,0.939,0.977,0.696,1.0,4.21,18.26,-16157.6,10075.12,23913.36,1126.92,-1384.42,-1786.94
1988,0.0,0.939,0.925,0.7,0.895,4.79,18.1,-16265.6,10771.12,23849.36,1459.92,-1478.42,-1069.94
2008,0.0,0.959,0.899,0.704,0.834,5.33,17.85,-16021.6,11151.12,23733.36,335.92,-1319.42,-976.94
2028,0.0,0.945,0.873,0.7,0.654,5.88,17.48,-16157.6,10659.12,23701.36,-118.08,-1215.42,-924.94
2048,0.0,0.939,0.873,0.707,1.0,6.39,17.25,-16013.6,10663.12,23881.36,814.92,-1113.42,-516.94
2068,0.0,0.966,0.512,0.7,1.0,6.95,17.21,-15977.6,11879.12,23697.36,605.92,-522.42,-502.94
2088,0.0,0.959,0.873,0.693,0.774,7.48,16.95,-16029.6,11499.12,23993.36,-411.08,-608.42,-399.94
2108,0.0,0.932,0.925,0.753,0.774,7.99,16.82,-15577.6,11675.12,23573.36,-106.08,-18.42,-182.94
2128,0.0,0.939,0.899,0.753,0.654,8.56,16.77,-15749.6,12483.12,23465.36,-477.08,322.58,-210.94
2148,0.0,0.939,0.848,0.718,0.774,9.17,16.65,-16101.6,12319.12,23317.36,-999.08,445.58,-561.94
2168,0.0,0.939,0.744,0.718,0.593,9.69,16.55,-15929.6,11987.12,23361.36,-525.08,125.58,-285.94
2188,0.0,0.959,1.0,0.739,0.834,10.1,16.63,-15593.6,12759.12,22945.36,-419.08,63.58,-78.94
2208,0.0,0.925,0.848,0.75,0.654,10.56,16.5,-15825.6,12627.12,23145.36,-1590.08,193.58,-269.94
2228,0.0,0.959,0.899,0.718,0.895,10.88,16.4,-15701.6,12171.12,22985.36,-1116.08,-447.42,0.06
2248,0.0,0.918,0.873,0.728,0.774,11.14,16.42,-15365.6,11707.12,22901.36,118.92,-321.42,99.06
2268,0.0,0.939,0.951,0.732,0.774,11.44,16.71,-15097.6,12531.12,22737.36,929.92,347.58,-61.94
2288,0.0,0.939,0.925,0.725,0.895,11.81,16.97,-15493.6,13343.12,22881.36,-79.08,582.58,-278.94
2308,0.0,0.939,0.873,0.718,0.834,12.12,16.98,-15461.6,12667.12,22709.36,-1072.08,296.58,-517.94
2328,0.0,0.945,0.925,0.721,0.774,12.4,17.0,-15501.6,12059.12,22849.36,-365.08,192.58,-418.94
2348,0.0,0.932,0.899,0.707,0.473,12.66,17.18,-15597.6,12483.12,23061.36,366.92,78.58,-220.94
2368,0.0,0.945,0.873,0.693,0.774,12.82,17.42,-15337.6,12855.12,23013.36,395.92,-172.42,-169.94
2388,0.0,0.932,0.925,0.682,0.593,13.01,17.62,-15193.6,12775.12,22641.36,44.92,266.58,-544.94
2408,0.0,0.939,0.873,0.682,0.533,13.31,17.69,-15721.6,12567.12,23065.36,-433.08,568.58,-774.94
2428,0.0,0.945,0.796,0.679,0.714,13.54,17.78,-15833.6,12403.12,22713.36,-314.08,-49.42,-228.94
2448,0.0,0.945,0.925,0.679,0.895,13.63,17.91,-15593.6,12291.12,22669.36,24.92,-531.42,-74.94
2468,0.0,0.925,0.925,0.569,0.714,13.62,18.16,-15057.6,12619.12,22777.36,580.92,-522.42,-271.94
2488,0.0,0.939,0.925,0.661,0.895,13.71,18.31,-15437.6,12543.12,23029.36,183.92,-249.42,-494.94
2508,0.0,0.932,0.899,0.661,0.834,13.8,18.44,-15365.6,11983.12,23057.36,619.92,-92.42,-440.94
2528,0.0,0.945,0.925,0.661,0.654,13.91,18.72,-15245.6,12611.12,23161.36,1017.92,269.58,-438.94
2548,0.0,0.911,0.822,0.657,0.654,14.09,18.9,-15569.6,12899.12,22797.36,-88.08,478.58,-682.94
2568,0.0,0.939,1.0,0.665,0.714,14.21,18.92,-15553.6,12123.12,22789.36,-316.08,134.58,-795.94
2588,0.0,0.966,0.925,0.654,0.714,14.27,19.03,-15585.6,12059.12,22909.36,410.92,-286.42,-498.94
2608,0.0,0.993,1.0,0.661,0.654,14.27,19.22,-15469.6,12459.12,22921.36,499.92,-456.42,-332.94
2628,0.0,0.972,1.0,0.647,0.774,14.25,19.33,-15073.6,12395.12,22741.36,-61.08,-30.42,-469.94
2648,0.0,0.939,0.873,0.661,1.0,14.35,19.35,-15625.6,11987.12,23053.36,9.92,120.58,-574.94
2668,0.0,0.939,0.848,0.661,0.955,14.41,19.5,-15637.6,11999.12,22745.36,624.92,-147.42,-504.94
2688,0.0,0.932,0.899,0.661,0.654,14.4,19.77,-15273.6,12415.12,22673.36,1052.92,-72.42,-456.94
2708,0.0,0.939,0.899,0.661,1.0,14.44,19.99,-15561.6,13067.12,22869.36,88.92,17.58,-517.94
2728,0.0,0.911,0.899,0.665,0.895,14.43,20.0,-15573.6,12431.12,22869.36,-610.08,-275.42,-616.94
2748,0.0,0.979,0.977,0.625,0.714,14.4,20.03,-15325.6,12327.12,22889.36,-343.08,-128.42,-640.94
2768,0.0,0.925,0.899,0.679,1.0,14.42,20.07,-15501.6,12407.12,22741.36,-502.08,-32.42,-664.94
2788,0.0,0.932,0.848,0.661,0.654,14.37,20.06,-15505.6,11831.12,23021.36,-75.08,-402.42,-561.94
2808,0.0,0.932,0.925,0.679,0.955,14.32,20.25,-15317.6,12371.12,23073.36,715.92,-87.42,-424.94
2828,0.0,0.911,0.951,0.668,0.774,14.33,20.42,-15401.6,12799.12,22949.36,36.92,216.58,-584.94
2848,0.0,0.823,0.873,0.675,0.593,14.34,20.43,-15541.6,12491.12,23021.36,-589.08,96.58,-851.94
2868,0.0,0.918,0.693,0.672,0.895,14.28,20.46,-15473.6,12139.12,23089.36,-154.08,-210.42,-654.94
2888,0.0,0.918,0.925,0.743,0.895,14.22,20.52,-15313.6,12195.12,23089.36,26.92,-80.42,-688.94
2908,0.0,0.925,0.899,0.76,0.714,14.23,20.57,-15565.6,12095.12,22985.36,31.92,141.58,-746.94
2928,0.0,0.952,0.925,0.732,0.774,14.18,20.69,-15441.6,12303.12,22809.36,178.92,-58.42,-553.94
2948,0.0,0.911,0.873,0.728,0.834,14.14,20.74,-15513.6,12275.12,22945.36,-195.08,-112.42,-622.94
2968,0.0,0.918,0.925,0.721,0.714,14.09,20.7,-15429.6,11807.12,22969.36,-359.08,-3.42,-588.94
2988,0.0,0.939,0.899,0.75,0.774,14.05,20.68,-15485.6,11835.12,22877.36,-235.08,-37.42,-455.94
