timestamp,flex_1,flex_2,flex_3,flex_4,flex_5,kalman_pitch,kalman_roll,acc_x,acc_y,acc_z,gyro_x,gyro_y,gyro_z
0,1.0,0.0,0.0,1.0,0.93,108.43,183.29,2653.92,521.44,13000.8,4938.86,6941.02,-766.98
20,1.0,0.487,0.641,1.0,0.739,62.53,124.94,2185.92,81.44,14872.8,7402.86,12473.02,-294.98
40,1.0,0.162,1.0,0.236,0.0,38.1,93.73,205.92,1209.44,15932.8,7797.86,14775.02,-2181.98
60,1.0,0.15,0.641,0.0,0.248,21.63,75.07,325.92,2913.44,15480.8,6096.86,11954.02,-4360.98
80,1.0,0.863,0.0,0.397,0.93,9.27,61.65,677.92,3297.44,15500.8,787.86,6262.02,-3164.98
100,1.0,0.837,1.0,0.128,0.03,-0.4,49.96,233.92,2093.44,15236.8,-3028.14,2157.02,-2559.98
120,1.0,0.627,0.641,0.517,1.0,-7.86,39.21,73.92,165.44,15680.8,-4829.14,126.02,-2860.98
140,1.0,0.43,0.071,0.0,1.0,-13.91,30.3,513.92,-538.56,16332.8,-4074.14,-766.98,-3245.98
160,0.753,0.933,1.0,0.142,0.0,-19.29,23.2,645.92,-266.56,15864.8,-1675.14,-1626.98,-3343.98
180,0.608,1.0,0.812,0.799,0.0,-24.13,17.85,257.92,633.44,15568.8,661.86,-2587.98,-3062.98
200,0.416,0.487,1.0,0.383,0.0,-28.9,13.82,145.92,1549.44,15544.8,1694.86,-6008.98,-726.98
220,0.0,0.334,0.0,0.0,0.548,-33.27,10.08,697.92,749.44,15908.8,2639.86,-7208.98,458.02
240,0.271,1.0,0.0,0.517,0.0,-37.46,6.88,749.92,1105.44,15272.8,3057.86,-7773.98,998.02
260,0.163,1.0,1.0,0.048,0.0,-41.42,3.98,1397.92,1309.44,14984.8,2575.86,-7572.98,2084.02
280,0.249,0.5,1.0,0.0,1.0,-45.05,1.41,1825.92,1793.44,14404.8,1957.86,-6019.98,1888.02
300,0.283,1.0,1.0,0.0,1.0,-48.07,-1.03,1441.92,1797.44,14824.8,1005.86,-4766.98,952.02
320,0.447,0.251,1.0,0.101,0.0,-50.69,-3.89,1361.92,633.44,15060.8,-185.14,-4468.98,436.02
340,0.228,0.0,0.926,1.0,0.0,-53.11,-6.79,1253.92,245.44,15092.8,-936.14,-4615.98,1124.02
360,0.225,0.143,0.0,0.947,0.0,-55.36,-10.03,1629.92,-602.56,14616.8,-2059.14,-4246.98,2075.02
380,0.184,0.181,0.0,0.0,1.0,-57.1,-13.18,1081.92,-1042.56,15616.8,-3297.14,-3419.98,2464.02
400,0.039,0.735,0.0,1.0,1.0,-58.54,-16.59,1149.92,-2362.56,15908.8,-4285.14,-3112.98,2566.02
420,0.595,0.181,0.0,1.0,0.0,-59.77,-19.83,1105.92,-2970.56,16348.8,-4037.14,-2967.98,2782.02
440,0.561,0.742,1.0,0.41,0.603,-60.91,-22.66,913.92,-2510.56,16900.8,-3869.14,-3280.98,3087.02
460,0.0,0.0,0.0,0.249,0.0,-62.06,-24.99,1093.92,-598.56,17688.8,-5619.14,-3444.98,4452.02
480,0.0,0.181,0.641,1.0,0.0,-63.25,-28.11,1597.92,-1578.56,16920.8,-9705.14,-3613.98,6249.02
500,0.206,0.15,1.0,0.517,0.876,-64.21,-31.99,1777.92,-2874.56,16472.8,-13657.14,-2604.98,6024.02
520,0.28,0.277,1.0,0.088,0.085,-64.76,-36.13,1229.92,-3946.56,17920.8,-16918.14,-2279.98,6533.02
540,0.184,0.347,0.0,0.155,0.057,-65.23,-40.43,2209.92,-4742.56,17936.8,-18652.14,-1631.98,8891.02
560,0.0,0.0,0.0,0.0,0.0,-65.33,-45.11,2753.92,-6126.56,16968.8,-20463.14,947.02,10760.02
580,0.286,0.0,0.0,0.558,0.849,-64.72,-50.34,3409.92,-8874.56,16572.8,-23030.14,4980.02,12249.02
600,0.082,0.646,0.0,1.0,0.085,-63.56,-56.09,4081.92,-12058.56,15436.8,-25158.14,8027.02,14557.02
620,0.28,0.43,0.0,1.0,0.248,-62.13,-61.91,4737.92,-13386.56,14856.8,-26563.14,10089.02,17988.02
640,0.221,0.0,0.755,0.0,0.221,-60.52,-67.73,4961.92,-15454.56,14532.8,-27519.14,11008.02,22175.02
660,0.231,0.0,1.0,0.0,0.0,-58.72,-73.22,5425.92,-16686.56,14428.8,-26958.14,12527.02,27513.02
680,0.0,0.143,0.47,0.33,0.03,-56.92,-78.53,4941.92,-18286.56,14204.8,-27134.14,12061.02,32233.02
700,0.138,0.201,1.0,0.276,0.0,-55.06,-83.69,4129.92,-18454.56,12756.8,-26830.14,12707.02,32953.02
720,0.197,0.43,0.755,0.0,0.0,-53.11,-88.67,3645.92,-19534.56,11912.8,-26572.14,13194.02,32953.02
740,0.0,0.06,1.0,0.558,1.0,-51.07,-93.2,689.92,-21270.56,13512.8,-26541.14,11787.02,32953.02
760,0.045,0.181,1.0,0.0,0.0,-49.31,-97.39,-1010.08,-20310.56,12144.8,-25007.14,9614.02,32953.02
781,0.274,0.226,0.698,0.222,1.0,-47.86,-101.06,-2526.08,-18118.56,11240.8,-22865.14,7624.02,32953.02
800,0.184,0.0,1.0,0.155,0.0,-46.65,-104.56,-4558.08,-15762.56,9480.8,-21986.14,5473.02,32953.02
820,0.169,0.315,0.242,0.0,0.0,-45.46,-108.23,-5174.08,-18070.56,7628.8,-22465.14,4378.02,32953.02
840,0.0,0.0,1.0,0.343,0.876,-44.36,-110.86,-7890.08,-14942.56,8968.8,-18550.14,2171.02,32953.02
860,0.209,0.538,1.0,0.746,1.0,-43.32,-112.55,-8510.08,-13578.56,7460.8,-11711.14,1622.02,32953.02
880,0.175,0.264,1.0,0.182,1.0,-42.36,-113.67,-8670.08,-10650.56,7244.8,-8475.14,1891.02,32953.02
900,0.0,0.181,1.0,0.0,1.0,-40.96,-114.62,-11346.08,-9994.56,6768.8,-7307.14,1375.02,32953.02
920,0.231,0.532,0.0,0.0,1.0,-39.63,-115.09,-12642.08,-9562.56,7048.8,-4996.14,-932.98,32953.02
940,0.141,0.328,1.0,1.0,0.0,-38.32,-115.29,-12670.08,-8002.56,4972.8,35.86,-921.98,32953.02
960,0.086,0.652,1.0,0.0,0.93,-37.15,-115.07,-11918.08,-5794.56,4964.8,3292.86,-104.98,32953.02
980,0.382,0.334,0.356,1.0,0.0,-34.93,-114.62,-14322.08,-4378.56,5536.8,3880.86,1495.02,32953.02
1000,0.191,0.0,0.0,0.0,0.085,-32.85,-114.25,-14530.08,-4438.56,4776.8,5231.86,554.02,32953.02
1020,0.373,0.576,1.0,0.517,0.0,-33.22,-113.88,-5922.08,-6914.56,1516.8,10265.86,-192.98,32953.02
1040,0.0,0.245,0.0,0.33,1.0,-29.94,-113.98,-14978.08,1101.44,3980.8,12758.86,1747.02,32953.02
1060,0.203,0.722,1.0,0.437,0.03,-27.17,-115.27,-13322.08,3241.44,3188.8,18172.86,6094.02,32953.02
1080,0.496,0.321,0.0,0.0,0.385,-22.3,-100.26,-16014.08,5785.44,3044.8,11507.86,10356.02,32953.02
1100,0.342,0.328,0.0,0.759,0.0,-18.01,-87.14,-15470.08,7321.44,2004.8,5668.86,13143.02,32953.02
1120,0.428,0.589,0.0,0.0,0.139,-13.14,-74.13,-16466.08,6241.44,2188.8,4655.86,14083.02,29628.02
1140,0.509,0.5,0.0,0.061,0.0,-8.77,-61.34,-16818.08,5969.44,1624.8,4250.86,12093.02,25560.02
1160,1.0,0.913,1.0,0.0,0.685,-5.22,-49.26,-18406.08,7173.44,896.8,5404.86,6528.02,20068.02
1180,0.929,0.78,0.0,1.0,0.0,-3.26,-38.18,-16794.08,11421.44,-1291.2,6927.86,4423.02,13116.02
1200,0.978,0.761,0.0,1.0,0.0,-1.89,-27.27,-14290.08,9293.44,-2459.2,3716.86,5408.02,6683.02
1220,1.0,0.792,1.0,1.0,1.0,0.12,-17.19,-17606.08,9561.44,-2287.2,1443.86,4075.02,1694.02
1240,0.963,1.0,1.0,1.0,1.0,1.85,-7.84,-19674.08,10697.44,-1435.2,1882.86,-432.98,-2632.98
1260,0.855,0.773,1.0,1.0,0.0,3.35,1.08,-20158.08,12561.44,-507.2,5364.86,-1702.98,-3697.98
1280,0.858,1.0,0.812,1.0,0.0,4.14,10.51,-19934.08,11037.44,-2927.2,5983.86,-5290.98,-5444.98
1300,1.0,0.805,1.0,1.0,0.494,4.74,19.54,-22134.08,11353.44,-3071.2,6205.86,-8906.98,-9677.98
1320,1.0,0.748,1.0,1.0,0.0,5.94,28.2,-26834.08,11585.44,-1431.2,8376.86,-9886.98,-13274.98
1340,1.0,0.557,0.0,1.0,1.0,7.6,36.51,-29914.08,10533.44,-859.2,7585.86,-9491.98,-14519.98
1360,1.0,0.875,0.0,1.0,1.0,9.65,44.28,-35486.08,10001.44,-579.2,5791.86,-9297.98,-14868.98
1380,1.0,1.0,1.0,1.0,1.0,11.86,50.96,-41026.08,8793.44,828.8,415.86,-10497.98,-13455.98
1400,1.0,0.43,1.0,0.947,1.0,14.18,58.08,-43218.08,5545.44,2060.8,-2572.14,-11497.98,-8232.98
1420,1.0,0.742,1.0,1.0,0.576,17.04,65.91,-43814.08,4377.44,3956.8,-151.14,-8793.98,-573.98
1440,1.0,1.0,0.0,1.0,0.576,20.25,72.56,-42282.08,5841.44,3868.8,4085.86,-5236.98,6966.02
1460,1.0,0.952,1.0,1.0,0.0,23.64,78.32,-39362.08,7749.44,2844.8,3943.86,-1498.98,10620.02
1480,1.0,0.742,1.0,0.934,0.439,27.37,83.27,-36898.08,8229.44,1736.8,-1467.14,2959.02,10154.02
1500,1.0,0.13,0.0,1.0,0.0,31.2,88.05,-32654.08,7277.44,1528.8,-4219.14,5420.02,10162.02
1520,1.0,0.748,0.0,1.0,0.0,34.88,92.98,-30142.08,6685.44,1392.8,-3965.14,5980.02,12498.02
1540,1.0,0.722,0.0,0.531,0.0,38.14,97.81,-27678.08,7577.44,1332.8,-700.14,5761.02,14863.02
1560,1.0,1.0,0.0,1.0,0.057,41.05,102.48,-25906.08,8337.44,908.8,852.86,6297.02,15986.02
1580,1.0,0.742,1.0,1.0,0.0,43.69,106.78,-25338.08,8849.44,376.8,-89.14,6481.02,14518.02
1600,1.0,0.532,1.0,0.0,1.0,45.9,111.08,-23194.08,7997.44,-379.2,-1846.14,6338.02,11119.02
1620,0.598,0.595,0.698,1.0,0.0,47.91,115.35,-21642.08,6677.44,-239.2,-3755.14,6264.02,9564.02
1640,0.892,1.0,1.0,0.974,0.0,50.07,119.74,-22150.08,6857.44,280.8,-615.14,6930.02,9175.02
1660,1.0,1.0,1.0,0.652,0.0,51.58,123.55,-21266.08,8481.44,476.8,1031.86,5024.02,8100.02
1680,0.916,0.5,0.0,1.0,0.0,52.4,126.88,-20654.08,8561.44,232.8,-1212.14,1852.02,5471.02
1700,1.0,0.226,0.47,1.0,0.63,52.68,130.13,-19130.08,8085.44,-183.2,-2423.14,658.02,2844.02
1720,0.913,0.156,0.0,1.0,0.0,53.39,133.55,-19930.08,7633.44,-315.2,-1349.14,2497.02,1686.02
1740,0.824,0.532,0.0,1.0,0.166,54.42,136.32,-21462.08,8517.44,452.8,-1713.14,2884.02,-130.98
1760,0.666,1.0,1.0,1.0,1.0,55.45,138.69,-22758.08,8809.44,824.8,-2227.14,1782.02,-1347.98
1780,0.679,0.748,0.0,1.0,1.0,56.33,140.96,-23338.08,8481.44,904.8,-2599.14,291.02,-2260.98
1800,0.87,0.493,0.071,0.0,1.0,57.04,143.14,-23826.08,8865.44,1004.8,-1484.14,-757.98,-2592.98
1820,1.0,0.544,0.0,1.0,0.467,57.77,145.35,-24706.08,9137.44,980.8,-1.14,-797.98,-2468.98
1840,0.886,0.417,1.0,1.0,0.93,58.67,147.36,-26978.08,10233.44,884.8,1280.86,21.02,-2763.98
1860,0.867,1.0,1.0,1.0,0.0,59.35,149.1,-26630.08,10633.44,932.8,910.86,-635.98,-2783.98
1880,1.0,0.226,1.0,1.0,1.0,60.04,150.65,-27446.08,10333.44,984.8,-76.14,-1063.98,-2810.98
1900,0.768,0.207,1.0,1.0,0.712,60.61,152.19,-27442.08,10441.44,684.8,219.86,-1441.98,-2683.98
1920,0.824,0.805,1.0,0.343,1.0,61.15,153.8,-27306.08,10413.44,460.8,891.86,-1213.98,-2263.98
1940,1.0,1.0,0.0,0.96,1.0,61.74,155.44,-27682.08,10413.44,204.8,1308.86,-659.98,-1706.98
1960,0.552,0.952,1.0,1.0,0.958,62.21,156.73,-27242.08,11353.44,340.8,1235.86,-473.98,-1651.98
1980,0.867,0.391,0.0,1.0,0.0,62.86,158.13,-27850.08,9713.44,88.8,-350.14,-362.98,-1255.98
2000,1.0,0.0,0.869,0.947,0.0,63.33,159.4,-27426.08,9749.44,156.8,-471.14,-1191.98,-1147.98
2020,0.719,0.729,0.0,0.92,1.0,63.68,160.88,-27014.08,9721.44,-231.2,900.86,-1267.98,-885.98
2040,0.753,0.391,0.0,1.0,0.221,63.98,162.05,-26370.08,10165.44,-19.2,425.86,-987.98,-631.98
2060,0.7,0.818,0.698,0.987,1.0,64.34,163.19,-26390.08,9757.44,-135.2,-48.14,-575.98,-620.98
2080,0.929,0.722,0.0,0.934,0.0,64.72,164.16,-26398.08,9605.44,140.8,-508.14,-667.98,-624.98
2100,0.771,0.315,1.0,1.0,1.0,65.12,165.17,-26790.08,9633.44,228.8,374.86,-615.98,40.02
2120,0.855,0.0,1.0,1.0,1.0,65.35,166.14,-26410.08,9733.44,-23.2,433.86,-1113.98,258.02
2140,0.845,0.0,0.47,0.746,1.0,65.56,167.0,-26186.08,9653.44,-91.2,-115.14,-1009.98,-79.98
2160,0.731,1.0,0.0,0.84,0.0,65.85,167.69,-26454.08,9557.44,104.8,-673.14,-757.98,-290.98
2180,0.827,1.0,1.0,0.517,0.0,66.12,168.39,-26490.08,9425.44,320.8,-119.14,-987.98,-326.98
2200,0.728,0.226,0.242,1.0,0.93,66.36,169.04,-26070.08,9557.44,256.8,138.86,-689.98,-103.98
2220,0.743,0.589,0.0,1.0,0.0,66.81,169.62,-26658.08,9165.44,472.8,-388.14,42.02,274.02
2239,0.824,0.856,1.0,0.893,0.0,67.24,170.03,-26626.08,9557.44,728.8,-0.14,274.02,-85.98
2260,0.876,0.716,1.0,1.0,0.0,67.6,170.34,-26658.08,9585.44,700.8,-330.14,-78.98,-388.98
2280,0.796,0.633,0.413,1.0,1.0,67.81,170.66,-26474.08,9565.44,464.8,-373.14,-619.98,-435.98
2300,0.907,0.735,0.926,0.0,0.658,67.9,171.04,-25914.08,9565.44,304.8,44.86,-882.98,-531.98
2320,0.756,0.576,0.983,1.0,0.0,68.08,171.22,-26202.08,9789.44,560.8,-184.14,-428.98,-541.98
2340,0.762,1.0,0.0,1.0,1.0,68.35,171.3,-26842.08,9465.44,864.8,-669.14,-495.98,-378.98
2360,0.743,0.894,0.0,1.0,0.521,68.51,171.44,-26590.08,9433.44,680.8,-339.14,-849.98,-283.98
2380,0.626,0.633,0.299,0.585,0.0,68.65,171.62,-26490.08,9481.44,660.8,142.86,-828.98,-387.98
2400,0.777,0.493,0.413,1.0,1.0,68.87,171.75,-26654.08,9293.44,948.8,277.86,-591.98,-395.98
2420,0.747,0.939,0.0,0.0,0.166,69.15,171.82,-26886.08,9457.44,968.8,484.86,-134.98,-5.98
2439,1.0,0.525,1.0,1.0,0.085,69.48,171.9,-27050.08,9073.44,772.8,-292.14,171.02,3.02
2460,0.793,0.64,0.584,1.0,0.0,69.77,171.83,-26918.08,9357.44,832.8,-479.14,235.02,-211.98
2480,0.58,0.633,1.0,1.0,0.0,69.99,171.77,-26886.08,9461.44,772.8,-129.14,70.02,-164.98
2500,0.83,0.232,1.0,1.0,0.303,70.13,171.71,-26518.08,9601.44,772.8,298.86,-18.98,113.02
2520,0.818,0.773,0.0,1.0,0.0,70.33,171.69,-26806.08,9485.44,660.8,346.86,284.02,386.02
2539,0.981,0.697,0.983,1.0,0.0,70.49,171.54,-26702.08,9633.44,764.8,88.86,217.02,164.02
2559,0.808,0.754,0.0,1.0,1.0,70.58,171.39,-26386.08,9709.44,552.8,103.86,262.02,74.02
2580,1.0,0.773,0.0,0.0,0.548,70.72,171.22,-26430.08,9625.44,580.8,-31.14,567.02,124.02
2600,0.765,0.595,0.0,1.0,1.0,70.87,170.97,-26562.08,9673.44,640.8,-257.14,692.02,-122.98
2620,0.725,0.875,1.0,1.0,0.658,70.95,170.68,-26630.08,9785.44,588.8,-304.14,376.02,-250.98
2640,0.997,0.602,0.0,1.0,1.0,70.98,170.43,-26322.08,9429.44,560.8,-572.14,89.02,-333.98
2660,0.747,0.824,0.0,1.0,0.057,71.06,170.22,-26378.08,9329.44,564.8,-337.14,348.02,-378.98
2680,0.614,0.633,1.0,0.249,0.0,71.21,169.96,-26870.08,9237.44,820.8,-300.14,403.02,-261.98
2699,0.756,0.614,1.0,1.0,0.085,71.27,169.72,-26674.08,9337.44,756.8,-18.14,131.02,-6.98
2719,0.669,0.589,1.0,1.0,0.0,71.29,169.59,-26642.08,9205.44,500.8,176.86,53.02,295.02
2740,0.842,0.5,0.071,0.0,0.0,71.24,169.42,-26438.08,9429.44,444.8,358.86,-49.98,286.02
2759,0.777,0.665,1.0,1.0,0.603,71.21,169.23,-26398.08,9333.44,492.8,293.86,81.02,253.02
2780,0.737,0.589,0.356,0.826,1.0,71.15,168.97,-26450.08,9565.44,380.8,146.86,139.02,122.02
2799,0.836,0.563,1.0,0.705,0.112,71.09,168.62,-26566.08,9617.44,512.8,-28.14,54.02,-21.98
2820,0.663,0.824,1.0,0.934,0.658,70.97,168.24,-26570.08,9749.44,576.8,105.86,-294.98,-83.98
2839,0.583,0.652,1.0,1.0,1.0,70.8,167.94,-26358.08,9629.44,460.8,362.86,-519.98,7.02
2860,0.771,0.901,0.698,0.987,0.057,70.64,167.58,-26434.08,9861.44,604.8,652.86,-332.98,-88.98
2880,0.827,0.952,0.0,0.33,0.085,70.53,167.18,-26570.08,9773.44,696.8,426.86,-259.98,-217.98
2900,0.879,0.627,1.0,1.0,0.0,70.42,166.81,-26550.08,9589.44,608.8,258.86,-250.98,-359.98
2920,0.691,0.831,0.0,0.0,0.0,70.37,166.44,-26710.08,9385.44,680.8,73.86,-152.98,-473.98
2940,0.75,0.0,0.0,1.0,1.0,70.35,166.09,-26818.08,9189.44,708.8,-30.14,-97.98,-472.98
2960,0.994,1.0,1.0,0.0,0.0,70.31,165.82,-26822.08,9009.44,656.8,94.86,-256.98,-263.98
2980,0.889,0.321,1.0,1.0,0.0,70.25,165.6,-26702.08,9009.44,616.8,451.86,-316.98,-99.98
