timestamp,flex_1,flex_2,flex_3,flex_4,flex_5,kalman_pitch,kalman_roll,acc_x,acc_y,acc_z,gyro_x,gyro_y,gyro_z
0,0.0,0.701,0.615,0.324,1.0,-57.75,-36.07,1374.4,1419.12,15509.36,-2371.08,278.58,707.06
20,0.0,0.782,0.667,0.228,1.0,-60.17,-33.36,2570.4,1387.12,15365.36,-3062.08,5247.58,1034.06
40,0.0,0.789,0.77,0.327,1.0,-57.93,-31.56,598.4,1015.12,17141.36,-5023.08,6154.58,-2050.94
59,0.0,0.776,0.667,0.327,1.0,-56.68,-32.45,898.4,-144.88,16709.36,-4436.08,5580.58,-2087.94
78,0.0,0.789,0.641,0.338,1.0,-55.13,-33.09,1062.4,-1092.88,17261.36,-292.08,7209.58,-1220.94
97,0.0,0.742,0.641,0.281,1.0,-52.87,-32.16,1838.4,-1364.88,19397.36,3957.92,11601.58,-773.94
117,0.0,0.728,0.641,0.359,1.0,-48.67,-29.38,-541.6,-844.88,24377.36,6756.92,13956.58,-219.94
136,0.0,0.782,0.667,0.381,1.0,-43.65,-25.98,-3593.6,95.12,28613.36,8670.92,14083.58,-325.94
156,0.0,0.782,0.641,0.381,1.0,-39.3,-22.68,-5061.6,-248.88,32025.36,10019.92,8133.58,-333.94
175,0.0,0.789,0.589,0.398,1.0,-36.11,-19.45,-3189.6,-1136.88,33409.36,14826.92,6865.58,1094.06
195,0.0,0.782,0.693,0.416,1.0,-32.92,-14.66,-1657.6,3083.12,36001.36,19578.92,10470.58,2211.06
215,0.0,0.769,0.744,0.377,1.0,-29.49,-11.25,-1301.6,4487.12,37185.36,10762.92,14680.58,326.06
235,0.0,0.769,0.667,0.384,1.0,-26.48,-9.88,18.4,1355.12,37557.36,3463.92,15778.58,-307.94
255,0.0,0.769,0.693,0.448,1.0,-23.44,-8.58,138.4,-44.88,37945.36,6176.92,18279.58,1122.06
275,0.0,0.755,0.693,0.388,1.0,-20.95,-7.34,1602.4,-1024.88,36357.36,9019.92,19557.58,2938.06
295,0.0,0.762,0.667,0.409,1.0,-18.73,-5.5,3046.4,495.12,34921.36,12692.92,23143.58,3361.06
315,0.0,0.755,0.331,0.377,1.0,-16.54,-3.65,2694.4,1759.12,33285.36,12831.92,26491.58,1632.06
335,0.0,0.769,0.615,0.409,1.0,-14.61,-2.51,2270.4,1155.12,32545.36,10736.92,27173.58,250.06
355,0.0,0.762,0.848,0.395,1.0,-12.99,-1.63,1578.4,1203.12,31093.36,10533.92,27766.58,-80.94
375,0.0,0.782,1.0,0.402,1.0,-11.91,-1.2,1338.4,523.12,29201.36,10713.92,27467.58,-529.94
395,0.0,0.755,0.77,0.388,1.0,-11.29,-1.0,910.4,271.12,27901.36,11246.92,26653.58,-589.94
415,0.0,0.755,0.667,0.434,1.0,-11.22,-0.94,830.4,315.12,25917.36,12223.92,26347.58,-270.94
435,0.0,0.762,0.641,0.398,1.0,-11.77,-0.87,590.4,1187.12,23329.36,12645.92,26313.58,-336.94
455,0.0,0.755,0.253,0.434,0.774,-13.31,-1.08,-301.6,2651.12,19069.36,10278.92,26308.58,-1592.94
475,0.0,0.748,0.641,0.398,1.0,-15.41,-1.61,-2765.6,3959.12,16185.36,5186.92,25010.58,-2248.94
495,0.0,0.776,0.667,0.391,1.0,-18.01,-3.06,-5105.6,3947.12,14325.36,1030.92,21338.58,-2780.94
515,0.0,0.782,0.693,0.388,1.0,-20.33,-5.84,-7013.6,2483.12,13989.36,1529.92,15788.58,-1477.94
534,0.0,0.776,0.641,0.377,1.0,-23.83,-7.67,-6233.6,3007.12,12937.36,7406.92,13067.58,655.06
554,0.0,0.789,0.667,0.381,1.0,-27.47,-4.76,-7457.6,6075.12,12005.36,11469.92,13427.58,-211.94
574,0.0,0.776,0.822,0.377,1.0,-30.23,-0.97,-9873.6,6627.12,11093.36,9283.92,11918.58,-1190.94
594,0.0,0.782,0.873,0.359,1.0,-31.01,1.21,-11753.6,6303.12,11437.36,5799.92,8212.58,-1066.94
614,0.0,0.769,0.641,0.381,1.0,-32.44,3.69,-11381.6,6735.12,11441.36,3834.92,5591.58,-1376.94
634,0.0,0.742,0.899,0.366,1.0,-32.3,5.81,-12321.6,6903.12,11929.36,3010.92,4596.58,-1728.94
654,0.0,0.769,0.641,0.373,1.0,-30.34,7.33,-13621.6,6835.12,12581.36,2809.92,3985.58,-1898.94
674,0.0,0.762,1.0,0.377,1.0,-27.41,8.42,-15149.6,6943.12,14081.36,3023.92,1794.58,-629.94
694,0.0,0.748,0.693,0.37,1.0,-24.87,8.97,-15781.6,6399.12,15677.36,4834.92,-799.42,1183.06
714,0.0,0.755,0.925,0.356,1.0,-22.91,10.72,-15849.6,8103.12,17097.36,7340.92,-2025.42,2827.06
734,0.0,0.762,0.563,0.37,1.0,-21.33,13.24,-15553.6,10671.12,18493.36,6868.92,-1205.42,2550.06
754,0.0,0.755,0.641,0.366,1.0,-19.96,15.34,-15117.6,11663.12,18845.36,3110.92,-236.42,937.06
774,0.0,0.755,0.744,0.341,1.0,-18.27,16.64,-16313.6,11735.12,20073.36,101.92,-383.42,-185.94
794,0.0,0.755,0.693,0.352,1.0,-16.91,17.5,-16225.6,11099.12,20585.36,-183.08,-1739.42,91.06
814,0.0,0.748,0.693,0.356,1.0,-15.9,18.76,-15689.6,12051.12,21281.36,1768.92,-1860.42,532.06
834,0.0,0.755,0.641,0.331,1.0,-14.91,20.57,-15477.6,14139.12,21713.36,2611.92,-762.42,402.06
854,0.0,0.755,0.667,0.338,1.0,-13.69,22.38,-16077.6,15415.12,21353.36,818.92,155.58,-1158.94
874,0.0,0.728,0.615,0.352,1.0,-12.83,23.87,-15497.6,15699.12,21569.36,-689.08,-669.42,-1472.94
893,0.0,0.755,0.641,0.267,1.0,-12.54,25.45,-14633.6,16799.12,23029.36,927.92,-2878.42,-1410.94
913,0.0,0.68,0.693,0.334,1.0,-12.6,27.6,-14009.6,18335.12,23021.36,3558.92,-3741.42,-2056.94
933,0.0,0.721,0.693,0.334,1.0,-12.68,29.88,-13373.6,19635.12,23677.36,4680.92,-2996.42,-4164.94
953,0.0,0.742,0.563,0.32,1.0,-12.78,31.93,-12573.6,19915.12,23137.36,3342.92,-2046.42,-7332.94
973,0.0,0.735,0.693,0.32,1.0,-12.8,33.37,-12805.6,18163.12,22885.36,1830.92,-1911.42,-9535.94
994,0.0,0.742,0.77,0.327,1.0,-12.72,34.48,-13561.6,17303.12,23437.36,1842.92,-2511.42,-10408.94
1014,0.0,0.742,0.641,0.327,1.0,-12.86,35.36,-13173.6,16435.12,23301.36,1785.92,-3508.42,-11042.94
1034,0.0,0.735,0.641,0.327,1.0,-13.18,36.19,-12705.6,15991.12,23597.36,2805.92,-4160.42,-11638.94
1054,0.0,0.728,0.641,0.32,1.0,-13.47,36.93,-12777.6,14875.12,23777.36,4258.92,-4318.42,-12710.94
1074,0.0,0.735,0.667,0.334,1.0,-13.7,37.71,-12645.6,14959.12,24021.36,5135.92,-3941.42,-14126.94
1094,0.0,0.742,0.615,0.331,1.0,-13.86,38.01,-12833.6,13367.12,23853.36,4295.92,-3866.42,-15173.94
1114,0.0,0.714,0.693,0.352,1.0,-13.88,37.77,-13553.6,11511.12,24181.36,3856.92,-4287.42,-15794.94
1133,0.0,0.714,0.641,0.32,1.0,-13.87,37.12,-14013.6,9639.12,24329.36,4083.92,-4909.42,-15803.94
1153,0.0,0.66,0.641,0.327,1.0,-13.84,36.47,-14393.6,8735.12,24805.36,5609.92,-5549.42,-14995.94
1173,0.0,0.721,0.641,0.331,1.0,-13.77,35.88,-14433.6,8651.12,24725.36,6031.92,-5418.42,-14582.94
1193,0.0,0.742,0.641,0.324,1.0,-13.58,34.74,-14685.6,7151.12,24361.36,4445.92,-5175.42,-14704.94
1213,0.0,0.701,0.641,0.324,1.0,-13.23,33.18,-15793.6,5591.12,24969.36,3789.92,-5820.42,-14509.94
1233,0.0,0.728,0.899,0.324,1.0,-12.88,31.62,-15925.6,4763.12,25265.36,4573.92,-5941.42,-13210.94
1253,0.0,0.701,0.667,0.331,1.0,-12.37,30.18,-15917.6,4595.12,24857.36,5206.92,-4804.42,-11831.94
1273,0.0,0.714,0.641,0.331,1.0,-11.64,28.62,-16601.6,4719.12,24365.36,3780.92,-4432.42,-10600.94
1293,0.0,0.714,0.667,0.324,1.0,-10.88,26.81,-16937.6,4371.12,24545.36,2045.92,-4423.42,-9727.94
1313,0.0,0.714,0.744,0.327,1.0,-10.09,24.87,-16813.6,4119.12,24141.36,1005.92,-4033.42,-9040.94
1333,0.0,0.714,0.667,0.324,1.0,-9.08,23.09,-17485.6,4903.12,23685.36,101.92,-3407.42,-8452.94
1353,0.0,0.708,0.667,0.324,1.0,-8.09,21.44,-17649.6,5811.12,23885.36,-1068.08,-3485.42,-7094.94
1372,0.0,0.701,0.615,0.327,1.0,-7.08,19.86,-17765.6,5911.12,24241.36,-1442.08,-3189.42,-6581.94
1391,0.0,0.701,0.615,0.228,1.0,-6.02,18.4,-17997.6,5703.12,23997.36,-920.08,-2938.42,-6584.94
1410,0.0,0.701,0.744,0.324,1.0,-5.02,17.15,-18525.6,5263.12,24513.36,749.92,-3525.42,-5209.94
1430,0.0,0.721,0.667,0.32,1.0,-4.27,16.79,-17681.6,7415.12,24785.36,3452.92,-3548.42,-3502.94
1450,0.0,0.714,0.667,0.32,1.0,-3.48,16.45,-17293.6,8867.12,23969.36,1119.92,-2721.42,-3803.94
1470,0.142,0.701,0.641,0.327,1.0,-2.66,15.43,-17985.6,6755.12,24973.36,-433.08,-2957.42,-4224.94
1489,0.0,0.714,0.667,0.32,1.0,-1.88,14.83,-17877.6,6031.12,25453.36,3223.92,-2748.42,-3139.94
1509,0.0,0.708,0.667,0.32,1.0,-1.19,14.92,-17245.6,8043.12,25381.36,5067.92,-2296.42,-1746.94
1529,0.0,0.701,0.667,0.32,1.0,-0.49,14.98,-17209.6,9239.12,25117.36,3277.92,-1914.42,-1585.94
1549,0.0,0.714,0.589,0.32,1.0,0.15,14.61,-16737.6,9007.12,24549.36,415.92,-1716.42,-1888.94
1569,0.0,0.694,0.615,0.317,1.0,0.89,14.18,-16761.6,9667.12,24537.36,-1000.08,-761.42,-2191.94
1589,0.0,0.714,0.693,0.32,1.0,1.79,13.6,-17269.6,9199.12,24885.36,-1453.08,-69.42,-2890.94
1609,0.0,0.694,0.641,0.317,1.0,2.6,13.08,-17129.6,8415.12,24677.36,-335.08,-275.42,-2154.94
1629,0.0,0.708,0.589,0.32,1.0,3.41,12.86,-17141.6,9359.12,24465.36,255.92,-46.42,-1624.94
1649,0.0,0.708,0.641,0.32,1.0,4.15,12.69,-16685.6,10079.12,23897.36,-659.08,203.58,-1701.94
1669,0.0,0.701,0.667,0.327,1.0,4.87,12.29,-16821.6,9395.12,23505.36,-1487.08,-6.42,-1783.94
1689,0.0,0.701,0.589,0.313,1.0,5.56,11.93,-16725.6,9091.12,23797.36,-966.08,193.58,-1569.94
1709,0.0,0.694,0.667,0.32,1.0,6.27,11.72,-16849.6,9375.12,23589.36,-437.08,392.58,-1272.94
1729,0.0,0.714,0.641,0.32,1.0,6.94,11.58,-16741.6,9351.12,23445.36,-129.08,453.58,-1017.94
1749,0.0,0.687,0.641,0.317,1.0,7.6,11.62,-16685.6,10119.12,23177.36,-55.08,672.58,-834.94
1769,0.0,0.714,0.744,0.32,1.0,8.19,11.52,-16525.6,10095.12,23053.36,-1065.08,594.58,-1102.94
1789,0.0,0.701,0.615,0.32,1.0,8.78,11.31,-16677.6,9363.12,22753.36,-1025.08,429.58,-1070.94
1809,0.0,0.701,0.641,0.32,1.0,9.26,11.12,-16417.6,8819.12,22397.36,-303.08,126.58,-713.94
1829,0.0,0.701,0.693,0.313,1.0,9.73,11.18,-16689.6,9463.12,22669.36,475.92,-84.42,-98.94
1849,0.0,0.701,0.615,0.317,1.0,10.06,11.38,-16381.6,10599.12,22377.36,-200.08,-372.42,-213.94
1869,0.0,0.694,0.667,0.32,1.0,10.42,11.2,-17109.6,9611.12,23077.36,-1204.08,-998.42,-510.94
1889,0.0,0.694,0.641,0.317,1.0,10.58,11.08,-16825.6,8879.12,23889.36,360.92,-1617.42,165.06
1909,0.0,0.714,0.589,0.32,1.0,10.74,11.31,-16477.6,10179.12,24193.36,1194.92,-1072.42,445.06
1929,0.0,0.701,0.641,0.317,1.0,11.0,11.5,-16201.6,10843.12,23749.36,-8.08,-26.42,-256.94
1949,0.0,0.714,0.667,0.317,1.0,11.36,11.48,-16689.6,10263.12,24065.36,-596.08,237.58,-638.94
1969,0.0,0.708,0.589,0.32,1.0,11.65,11.51,-16861.6,9919.12,24277.36,219.92,-302.42,-280.94
1989,0.0,0.701,0.641,0.32,1.0,11.83,11.74,-16661.6,10271.12,24201.36,1068.92,-741.42,155.06
2009,0.0,0.694,0.589,0.317,1.0,11.96,12.0,-16293.6,10703.12,24137.36,875.92,-525.42,8.06
2029,0.0,0.701,0.641,0.317,1.0,12.16,12.1,-16149.6,10639.12,24121.36,-172.08,134.58,-546.94
2049,0.0,0.701,0.641,0.313,1.0,12.43,12.06,-16493.6,10563.12,24409.36,-849.08,423.58,-686.94
2069,0.0,0.708,0.641,0.32,1.0,12.7,11.97,-16629.6,10083.12,24293.36,-826.08,248.58,-609.94
2089,0.0,0.714,0.641,0.32,1.0,12.91,11.95,-16377.6,9895.12,24189.36,-110.08,230.58,-302.94
2109,0.0,0.694,0.641,0.32,1.0,13.14,12.07,-16253.6,10319.12,23829.36,155.92,604.58,-234.94
2129,0.0,0.694,0.693,0.32,1.0,13.41,12.16,-16493.6,10187.12,23441.36,-87.08,522.58,-373.94
2149,0.0,0.714,0.641,0.32,1.0,13.65,12.11,-16309.6,9703.12,23193.36,-450.08,652.58,-492.94
2169,0.0,0.701,0.667,0.32,1.0,13.89,11.99,-16437.6,9231.12,23249.36,-397.08,523.58,-56.94
2189,0.0,0.714,0.641,0.32,1.0,14.04,12.03,-16521.6,9355.12,23045.36,398.92,-125.42,383.06
2209,0.0,0.701,0.693,0.313,1.0,14.06,12.28,-16305.6,9883.12,23041.36,1265.92,-654.42,840.06
2229,0.0,0.694,0.615,0.32,1.0,14.1,12.68,-16201.6,11195.12,23197.36,735.92,-257.42,617.06
2249,0.0,0.708,0.641,0.32,1.0,14.24,12.65,-16553.6,10239.12,23317.36,-890.08,4.58,-172.94
2269,0.0,0.714,0.641,0.32,1.0,14.31,12.7,-16801.6,9399.12,23729.36,745.92,-641.42,85.06
2289,0.0,0.68,0.667,0.32,1.0,14.28,13.17,-16297.6,10559.12,23705.36,2290.92,-695.42,495.06
2309,0.0,0.701,0.615,0.32,1.0,14.25,13.53,-16085.6,11159.12,23873.36,1065.92,-281.42,196.06
2329,0.0,0.701,0.589,0.317,1.0,14.25,13.69,-15953.6,10995.12,23545.36,-203.08,2.58,-150.94
2349,0.0,0.701,0.641,0.313,1.0,14.35,13.66,-16225.6,10455.12,23465.36,-942.08,372.58,-523.94
2369,0.0,0.701,0.693,0.32,1.0,14.44,13.63,-16517.6,10283.12,23641.36,-631.08,17.58,-257.94
2389,0.0,0.68,0.615,0.32,1.0,14.43,13.73,-16241.6,10335.12,23721.36,183.92,-271.42,-149.94
2409,0.0,0.687,0.641,0.32,0.0,14.44,13.93,-16257.6,10891.12,23829.36,247.92,-46.42,-519.94
2429,0.0,0.694,0.641,0.313,1.0,14.49,13.91,-16293.6,10299.12,23817.36,-495.08,118.58,-663.94
2449,0.0,0.701,0.589,0.317,1.0,14.56,13.93,-16133.6,9995.12,23425.36,-114.08,476.58,-569.94
2469,0.0,0.701,0.641,0.299,1.0,14.69,14.01,-16409.6,10103.12,23373.36,216.92,507.58,-645.94
2489,0.0,0.694,0.589,0.32,1.0,14.69,14.13,-16297.6,10155.12,23081.36,317.92,-182.42,-512.94
2509,0.0,0.701,0.615,0.317,1.0,14.61,14.24,-16001.6,10579.12,23209.36,-235.08,-270.42,-419.94
2529,0.0,0.714,0.693,0.32,1.0,14.61,14.12,-16021.6,10087.12,23205.36,-1203.08,220.58,-695.94
2549,0.0,0.701,0.589,0.32,1.0,14.65,13.88,-16357.6,9187.12,23293.36,-974.08,2.58,-611.94
2569,0.0,0.701,0.615,0.32,1.0,14.63,13.83,-16533.6,9583.12,23365.36,-170.08,-430.42,-75.94
2589,0.0,0.714,0.589,0.32,1.0,14.53,13.93,-16161.6,10411.12,23701.36,-17.08,-479.42,-69.94
2609,0.0,0.701,0.641,0.32,1.0,14.42,13.97,-16213.6,10203.12,23889.36,-155.08,-559.42,-232.94
2629,0.0,0.694,0.641,0.32,1.0,14.37,14.02,-16381.6,10091.12,24017.36,121.92,-366.42,-173.94
2649,0.0,0.687,0.641,0.32,1.0,14.32,14.12,-16309.6,10287.12,24033.36,218.92,-223.42,12.06
2669,0.0,0.694,0.641,0.32,1.0,14.25,14.23,-16169.6,10159.12,24129.36,471.92,-199.42,-103.94
2689,0.0,0.68,0.512,0.32,1.0,14.21,14.37,-16125.6,10539.12,23893.36,256.92,18.58,-255.94
2709,0.0,0.694,0.615,0.317,1.0,14.22,14.38,-16329.6,10399.12,23685.36,-583.08,106.58,-619.94
2729,0.0,0.687,0.848,0.313,1.0,14.19,14.36,-16393.6,10015.12,23981.36,-292.08,-150.42,-551.94
2749,0.0,0.694,0.615,0.313,1.0,14.1,14.44,-16181.6,10159.12,24153.36,351.92,-294.42,-389.94
2769,0.0,0.687,0.796,0.32,1.0,14.0,14.53,-16033.6,10211.12,23973.36,228.92,-166.42,-427.94
2789,0.0,0.694,0.589,0.32,1.0,13.91,14.59,-15929.6,10307.12,23853.36,-30.08,-55.42,-450.94
2809,0.0,0.694,0.434,0.317,1.0,13.83,14.58,-16113.6,10115.12,23861.36,-310.08,-167.42,-561.94
2829,0.0,0.694,0.667,0.32,1.0,13.76,14.54,-16017.6,9747.12,23825.36,-146.08,-57.42,-495.94
2849,0.0,0.694,0.77,0.317,1.0,13.73,14.49,-16117.6,9667.12,23857.36,-145.08,115.58,-585.94
2869,0.0,0.687,0.615,0.32,1.0,13.67,14.52,-16001.6,9879.12,23913.36,201.92,67.58,-399.94
2889,0.0,0.694,0.512,0.313,1.0,13.63,14.55,-16237.6,9915.12,23949.36,137.92,38.58,-442.94
2909,0.0,0.68,0.641,0.317,1.0,13.55,14.56,-15973.6,9811.12,24073.36,187.92,-2.42,-229.94
2929,0.0,0.701,0.563,0.306,1.0,13.53,14.59,-15945.6,10147.12,23845.36,-142.08,445.58,-380.94
2949,0.0,0.694,0.667,0.32,1.0,13.53,14.53,-16081.6,9911.12,23857.36,-458.08,467.58,-484.94
2969,0.0,0.694,0.641,0.341,1.0,13.53,14.5,-16161.6,9643.12,23733.36,-85.08,311.58,-414.94
2989,0.0,0.701,0.615,0.32,1.0,13.45,14.53,-16221.6,9751.12,23757.36,260.92,-188.42,-180.94
