timestamp,flex_1,flex_2,flex_3,flex_4,flex_5,kalman_pitch,kalman_roll,acc_x,acc_y,acc_z,gyro_x,gyro_y,gyro_z
0,1.0,0.226,0.0,0.454,1.0,25.1,-92.08,6651.92,-6076.32,18557.68,-1040.92,-825.2,287.16
19,1.0,0.294,0.0,0.46,0.587,17.0,-64.59,6803.92,-6620.32,18401.68,-259.92,-150.2,1.16
38,1.0,0.286,0.0,0.472,1.0,12.78,-50.28,7023.92,-6180.32,18469.68,60.08,435.8,-7.84
60,1.0,0.0,0.0,0.429,1.0,10.39,-41.72,6787.92,-6280.32,18721.68,-706.92,286.8,-109.84
79,1.0,0.192,0.0,0.523,1.0,8.74,-35.93,6807.92,-6252.32,18689.68,-737.92,69.8,-129.84
99,1.0,0.26,0.0,0.516,0.0,7.33,-32.18,7155.92,-7120.32,18521.68,-546.92,-149.2,-167.84
119,1.0,0.26,0.0,0.46,1.0,6.18,-29.5,7199.92,-7920.32,18893.68,431.08,-589.2,47.16
139,1.0,0.243,0.0,0.46,0.451,5.39,-26.99,6931.92,-7140.32,18581.68,1012.08,-407.2,405.16
159,1.0,0.251,0.0,0.516,0.0,5.0,-24.63,6787.92,-5952.32,19049.68,-261.92,1158.8,391.16
180,0.994,0.593,0.0,0.46,0.519,4.64,-22.87,7007.92,-5840.32,20221.68,-2531.92,1347.8,804.16
199,1.0,0.183,0.0,0.422,1.0,4.34,-21.62,7471.92,-6092.32,20005.68,-3656.92,2401.8,2677.16
219,1.0,0.243,0.0,0.548,1.0,4.25,-20.86,7255.92,-6112.32,19941.68,-5774.92,2984.8,6510.16
239,1.0,0.243,1.0,0.46,0.451,4.74,-21.41,5547.92,-8484.32,20973.68,-10374.92,3897.8,9711.16
260,1.0,0.175,0.0,0.472,1.0,5.71,-22.96,4935.92,-10472.32,21593.68,-14757.92,6843.8,10978.16
280,1.0,0.183,0.0,0.441,0.587,7.42,-25.16,2291.92,-12304.32,22193.68,-17958.92,9003.8,11434.16
300,1.0,0.243,1.0,0.466,1.0,9.79,-27.7,823.92,-11728.32,19809.68,-20773.92,11756.8,12289.16
319,1.0,0.277,0.0,0.604,0.246,12.21,-31.01,-1256.08,-16068.32,19277.68,-21723.92,11574.8,15702.16
339,1.0,0.277,0.0,0.523,0.382,14.23,-32.78,-1792.08,-18236.32,18785.68,-9933.92,9876.8,20346.16
359,1.0,0.047,0.0,0.591,0.519,15.92,-32.32,363.92,-20640.32,18977.68,6726.08,11430.8,22171.16
380,1.0,0.217,0.0,0.717,0.587,18.88,-27.6,1679.92,-13732.32,22277.68,28109.08,22168.8,22352.16
399,1.0,0.209,0.0,0.761,1.0,23.07,-21.69,-5744.08,-740.32,22193.68,22661.08,23488.8,21070.16
420,1.0,0.175,0.0,0.798,1.0,25.86,-19.19,-1848.08,-3392.32,22377.68,4758.08,19353.8,18103.16
440,1.0,0.345,0.0,0.867,0.587,28.99,-17.61,1391.92,-7716.32,19393.68,5548.08,25595.8,15720.16
459,1.0,0.089,0.0,0.692,1.0,32.69,-15.43,-1732.08,-6792.32,20045.68,9006.08,27427.8,17395.16
479,1.0,0.081,1.0,0.886,1.0,36.86,-12.48,-4804.08,-4128.32,17441.68,11659.08,27108.8,17416.16
499,1.0,0.047,0.0,1.0,0.314,41.11,-9.61,-5120.08,-3000.32,15341.68,10317.08,27352.8,17149.16
520,1.0,0.038,0.0,1.0,1.0,45.15,-7.13,-5032.08,-3184.32,14305.68,8943.08,26723.8,15997.16
539,1.0,0.0,0.0,0.867,1.0,48.92,-4.65,-3544.08,-2860.32,12957.68,9118.08,26712.8,16725.16
559,1.0,0.0,0.0,1.0,1.0,52.82,-1.64,-3936.08,-1440.32,11645.68,9819.08,27457.8,20262.16
579,1.0,0.0,0.0,1.0,1.0,56.62,0.69,-1720.08,-2352.32,8669.68,6852.08,26451.8,23402.16
600,1.0,0.0,0.0,1.0,0.0,60.54,2.36,-4864.08,-2996.32,7773.68,5033.08,24030.8,25403.16
619,1.0,0.0,0.0,1.0,1.0,64.69,4.71,-3916.08,-2572.32,6101.68,6301.08,25207.8,24742.16
639,1.0,0.0,0.0,1.0,1.0,68.19,8.84,-3184.08,503.68,5657.68,5300.08,25601.8,23061.16
659,1.0,0.0,0.0,1.0,1.0,70.84,13.59,-2488.08,1799.68,4201.68,3044.08,22766.8,22336.16
679,1.0,0.0,0.0,1.0,1.0,72.79,19.37,-1268.08,2331.68,2161.68,3418.08,21036.8,20913.16
700,1.0,0.0,0.0,1.0,0.451,73.27,24.41,-368.08,5359.68,1917.68,-288.92,17664.8,18710.16
720,1.0,0.0,0.0,1.0,1.0,71.61,28.78,5715.92,5883.68,1533.68,-4379.92,15792.8,15346.16
738,1.0,0.0,0.0,1.0,0.382,76.27,25.47,235.92,-4856.32,1617.68,33200.08,31391.8,14389.16
759,1.0,0.0,0.0,1.0,1.0,74.55,32.51,1843.92,8879.68,-5606.32,4678.08,12598.8,11508.16
779,1.0,0.0,0.0,1.0,1.0,70.42,37.44,6783.92,11759.68,-5210.32,-5492.92,3086.8,9676.16
799,1.0,0.0,0.0,1.0,1.0,66.52,43.22,8663.92,15967.68,-8374.32,610.08,5574.8,4404.16
819,1.0,0.0,0.0,1.0,1.0,62.89,48.37,7871.92,15747.68,-9702.32,-3342.92,5763.8,-7638.84
839,1.0,0.0,0.0,1.0,1.0,58.87,52.21,7503.92,16823.68,-7470.32,-8607.92,1839.8,-17872.84
859,1.0,0.0,0.0,1.0,1.0,54.19,54.83,7743.92,17727.68,-6454.32,-14791.92,-3577.2,-23854.84
880,1.0,0.132,0.0,1.0,1.0,49.09,57.29,8439.92,16503.68,-4942.32,-14468.92,-7121.2,-29591.84
900,1.0,0.0,0.0,1.0,1.0,43.62,59.85,8779.92,14691.68,-4042.32,-12916.92,-10695.2,-32570.84
919,1.0,0.0,0.0,1.0,1.0,38.0,61.89,7275.92,8543.68,-1014.32,-14572.92,-15171.2,-32570.84
940,1.0,0.0,0.0,1.0,1.0,33.34,63.03,4435.92,1735.68,4061.68,-7642.92,-20606.2,-32570.84
960,1.0,0.047,0.0,1.0,1.0,29.51,58.68,3579.92,-5632.32,6717.68,-6587.92,-21418.2,-32570.84
979,1.0,0.0,0.0,1.0,1.0,25.5,52.32,1667.92,-15844.32,9193.68,-6894.92,-18096.2,-32570.84
999,1.0,0.132,0.0,1.0,1.0,22.47,46.63,-2252.08,-25932.32,15125.68,-4101.92,-12308.2,-32570.84
1019,1.0,0.0,0.0,1.0,1.0,18.65,43.19,-228.08,-34228.32,22201.68,8975.08,-15511.2,-32570.84
1039,1.0,0.0,0.0,0.754,1.0,14.85,42.13,2071.92,-29268.32,21845.68,23215.08,-15836.2,-31714.84
1060,1.0,0.132,0.0,0.761,0.314,11.95,40.17,-104.08,-31976.32,24797.68,16894.08,-11996.2,-9328.84
1079,1.0,0.0,0.0,0.748,1.0,10.3,37.02,-4140.08,-36136.32,27153.68,9023.08,-6065.2,2192.16
1100,1.0,0.0,0.0,0.798,1.0,10.06,33.05,-5008.08,-33520.32,23725.68,3434.08,1889.8,6295.16
1119,1.0,0.0,0.0,0.905,1.0,11.11,28.06,-7292.08,-28308.32,20097.68,-4530.92,7916.8,8730.16
1139,1.0,0.0,0.0,1.0,1.0,12.81,22.3,-7936.08,-26200.32,16705.68,-9927.92,11173.8,12386.16
1160,1.0,0.0,0.0,1.0,1.0,15.02,16.59,-7176.08,-24300.32,14545.68,-10469.92,14627.8,16197.16
1179,1.0,0.0,1.0,0.867,0.0,17.54,11.01,-5892.08,-20440.32,12593.68,-11474.92,16520.8,20012.16
1199,1.0,0.0,0.0,0.98,1.0,20.1,5.46,-4500.08,-16588.32,9701.68,-12241.92,15878.8,25391.16
1219,1.0,0.0,0.0,0.892,0.246,22.7,0.46,-3860.08,-14616.32,8337.68,-9729.92,15723.8,30041.16
1239,1.0,0.047,0.0,0.917,1.0,25.79,-3.28,-2924.08,-9628.32,6721.68,-5325.92,15142.8,32964.16
1260,1.0,0.0,0.0,0.886,0.587,29.2,-5.56,-2588.08,-7124.32,5741.68,565.08,14519.8,32964.16
1280,1.0,0.0,0.0,0.867,1.0,32.88,-5.68,-2788.08,-4776.32,4945.68,5997.08,13329.8,32964.16
1299,1.0,0.0,0.0,0.867,1.0,35.98,-0.37,-1480.08,-588.32,3565.68,8073.08,12795.8,32964.16
1320,1.0,0.0,0.0,0.779,0.382,38.36,5.62,-1480.08,2011.68,2169.68,5952.08,13558.8,32964.16
1340,1.0,0.0,0.0,0.779,0.382,39.74,11.47,-368.08,4847.68,1001.68,4135.08,13288.8,32964.16
1360,1.0,0.0,0.0,0.779,1.0,39.96,16.58,1299.92,11339.68,-90.32,643.08,13235.8,32273.16
1379,1.0,0.0,0.0,0.754,0.451,40.28,21.79,2287.92,10147.68,-2990.32,-1742.92,15266.8,28862.16
1399,1.0,0.0,0.0,0.917,0.314,40.41,26.72,2227.92,9387.68,-4398.32,-4573.92,14033.8,26206.16
1419,1.0,0.0,0.0,1.0,1.0,39.7,31.54,3567.92,13287.68,-4638.32,-2321.92,11230.8,21795.16
1439,1.0,0.0,0.0,1.0,0.587,38.33,36.32,5207.92,16779.68,-6902.32,-1964.92,8807.8,15759.16
1460,1.0,0.0,0.0,1.0,1.0,36.24,40.64,10703.92,25483.68,-10002.32,-3375.92,7740.8,8449.16
1479,1.0,0.0,0.0,0.961,0.0,33.59,44.34,13951.92,29010.68,-12642.32,-7129.92,4868.8,848.16
1500,1.0,0.0,0.0,0.992,0.0,29.58,48.31,14399.92,29010.68,-12158.32,-4050.92,-4870.2,-11926.84
1520,1.0,0.0,0.0,0.817,0.519,23.72,52.77,19295.92,29010.68,-12638.32,80.08,-16299.2,-29774.84
1539,1.0,0.0,0.0,0.773,0.519,16.54,57.23,23807.92,29010.68,-12474.32,1436.08,-25036.2,-32570.84
1559,1.0,0.0,0.0,0.955,1.0,9.3,60.87,20827.92,21019.68,-5670.32,-633.92,-26759.2,-32570.84
1580,1.0,0.0,0.0,0.98,0.451,0.54,56.13,10639.92,-4820.32,4493.68,-7840.92,-28921.2,-32570.84
1600,1.0,0.089,0.0,0.767,0.246,-4.74,50.4,3607.92,-29320.32,7913.68,2443.08,-31375.2,-32570.84
1619,1.0,0.0,0.0,1.0,1.0,-8.76,47.23,17979.92,-17704.32,10405.68,12377.08,-9413.2,-32570.84
1639,1.0,0.0,0.0,1.0,1.0,-10.52,41.3,7799.92,-22936.32,24305.68,-14075.92,-6982.2,-32570.84
1661,1.0,0.0,0.0,0.986,1.0,-13.32,32.41,8131.92,-35120.32,21437.68,-29824.92,-14772.2,-32570.84
1681,1.0,0.0,0.0,0.779,1.0,-16.34,24.03,12319.92,-36524.32,10921.68,-22950.92,-14836.2,-32570.84
1700,1.0,0.0,0.0,0.88,1.0,-17.46,19.41,7939.92,-36524.32,8001.68,2380.08,-5457.2,-11972.84
1719,1.0,0.0,1.0,0.88,0.246,-17.12,18.01,-216.08,-36524.32,9549.68,22598.08,-771.2,521.16
1740,1.0,0.0,0.0,0.767,1.0,-16.1,16.79,-3732.08,-25352.32,9017.68,22273.08,-941.2,4632.16
1760,1.0,0.158,0.0,0.754,0.382,-14.61,14.31,-4760.08,-18568.32,7809.68,12595.08,-1600.2,3591.16
1779,1.0,0.0,0.0,0.898,1.0,-12.98,10.31,-4408.08,-16940.32,6829.68,2270.08,-1376.2,1385.16
1799,1.0,0.0,0.0,0.955,0.0,-11.7,5.61,-3804.08,-19060.32,7033.68,-2872.92,-1564.2,-154.84
1819,1.0,0.0,0.0,0.967,1.0,-10.54,1.51,-3124.08,-18364.32,7601.68,-950.92,-1967.2,-173.84
1840,1.0,0.0,0.0,1.0,0.0,-9.22,-1.87,-2648.08,-17008.32,7669.68,2278.08,-1030.2,1029.16
1859,1.0,0.0,0.0,0.961,0.451,-7.75,-5.04,-2648.08,-16448.32,7705.68,2596.08,-141.2,782.16
1880,1.0,0.0,0.0,0.892,1.0,-6.36,-8.24,-2608.08,-15908.32,7665.68,1399.08,-696.2,698.16
1899,1.0,0.0,0.0,0.98,1.0,-5.03,-11.34,-3240.08,-15428.32,8161.68,234.08,-1727.2,767.16
1919,1.0,0.0,0.0,0.955,0.382,-3.75,-14.27,-3292.08,-15436.32,7933.68,1002.08,-1927.2,721.16
1939,1.0,0.0,0.0,0.949,1.0,-2.33,-17.04,-3192.08,-15344.32,7681.68,1669.08,-824.2,129.16
1960,1.0,0.0,0.0,1.0,0.0,-0.9,-19.57,-3468.08,-15364.32,8425.68,1648.08,-547.2,-120.84
1979,1.0,0.0,0.0,1.0,1.0,0.37,-22.13,-2860.08,-15812.32,8113.68,1495.08,-580.2,40.16
2000,1.0,0.0,0.0,0.999,0.0,1.64,-24.47,-2872.08,-15220.32,8125.68,1972.08,-740.2,830.16
2019,1.0,0.0,0.0,0.967,0.0,2.92,-26.85,-2748.08,-14960.32,7745.68,1448.08,-631.2,982.16
2039,1.0,0.0,0.0,0.961,0.041,4.15,-29.27,-2696.08,-15024.32,7865.68,455.08,-615.2,447.16
2059,1.0,0.0,0.0,0.992,1.0,5.41,-31.66,-3052.08,-14888.32,7777.68,93.08,-630.2,329.16
2079,1.0,0.0,0.0,0.949,1.0,6.66,-33.97,-3432.08,-15068.32,7881.68,-29.92,-671.2,231.16
2100,1.0,0.0,0.0,0.961,0.451,7.86,-36.2,-3312.08,-14884.32,7825.68,-168.92,-846.2,203.16
2119,1.0,0.0,0.0,0.898,0.0,9.05,-38.29,-3368.08,-14780.32,8125.68,-322.92,-671.2,251.16
2139,1.0,0.0,0.0,0.761,1.0,10.22,-40.4,-3128.08,-15244.32,8021.68,-540.92,-130.2,-95.84
2160,1.0,0.0,0.0,0.961,1.0,11.44,-42.48,-3092.08,-15428.32,8125.68,-928.92,709.8,-520.84
2179,1.0,0.0,0.242,0.911,1.0,12.65,-44.55,-3172.08,-15520.32,7873.68,-1041.92,762.8,-443.84
2200,1.0,0.0,0.0,0.723,1.0,13.74,-46.63,-3204.08,-15712.32,7713.68,-1349.92,295.8,-440.84
2220,1.0,0.0,0.0,0.66,0.0,14.72,-48.58,-3176.08,-15764.32,7581.68,-857.92,-184.2,-117.84
2239,1.0,0.0,0.0,0.736,0.587,15.57,-50.38,-2812.08,-15712.32,7433.68,-195.92,-697.2,484.16
2260,1.0,0.0,0.0,0.736,1.0,16.4,-51.93,-2696.08,-15588.32,7853.68,331.08,-477.2,439.16
2279,1.0,0.0,0.0,0.66,0.382,17.25,-53.28,-2856.08,-15100.32,8049.68,689.08,-643.2,555.16
2299,1.0,0.0,0.0,0.56,1.0,18.07,-54.57,-3048.08,-15148.32,8225.68,518.08,-705.2,471.16
2319,1.0,0.0,0.0,0.723,1.0,18.83,-55.81,-2604.08,-14916.32,8297.68,185.08,-659.2,503.16
2340,1.0,0.0,0.0,0.761,1.0,19.68,-57.05,-2788.08,-14776.32,8205.68,-195.92,-273.2,445.16
2359,1.0,0.0,0.0,0.667,0.246,20.57,-58.21,-2960.08,-14908.32,8261.68,29.08,205.8,195.16
2380,1.0,0.0,0.0,0.573,0.451,21.48,-59.26,-3108.08,-14872.32,8453.68,74.08,412.8,-203.84
2399,1.0,0.0,0.848,0.698,0.314,22.35,-60.45,-2872.08,-14976.32,8009.68,-452.92,476.8,-490.84
2419,1.0,0.0,0.0,0.729,0.246,23.15,-61.65,-3016.08,-15368.32,7973.68,-705.92,319.8,-516.84
2440,1.0,0.0,0.0,0.867,1.0,23.87,-62.85,-2752.08,-15688.32,7701.68,-461.92,277.8,-386.84
2459,1.0,0.0,0.0,0.604,0.246,24.52,-63.9,-2736.08,-15872.32,8013.68,-124.92,275.8,-363.84
2480,1.0,0.0,0.0,0.729,1.0,25.1,-64.84,-2660.08,-15852.32,8097.68,179.08,-26.2,98.16
2500,1.0,0.0,0.0,0.742,0.587,25.69,-65.73,-2852.08,-15696.32,8121.68,64.08,-73.2,335.16
2519,1.0,0.0,0.0,1.0,0.382,26.26,-66.64,-2776.08,-15632.32,7873.68,-64.92,-186.2,335.16
2540,1.0,0.0,0.0,0.729,1.0,26.79,-67.46,-2796.08,-15728.32,7965.68,122.08,-214.2,481.16
2558,1.0,0.0,0.0,0.761,1.0,27.33,-68.15,-2948.08,-15540.32,8033.68,553.08,-267.2,622.16
2579,1.0,0.0,0.0,0.905,0.382,27.88,-68.76,-3012.08,-15380.32,8149.68,555.08,-179.2,724.16
2599,1.0,0.106,1.0,0.792,1.0,28.47,-69.4,-3100.08,-15224.32,8009.68,294.08,-79.2,686.16
2619,1.0,0.0,0.0,0.942,0.587,29.07,-70.03,-3180.08,-14984.32,7893.68,42.08,-57.2,550.16
2639,1.0,0.0,0.0,0.748,0.314,29.68,-70.63,-3228.08,-14920.32,7985.68,-142.92,-1.2,292.16
2659,1.0,0.0,0.0,0.805,1.0,30.26,-71.2,-3384.08,-14896.32,7909.68,-141.92,-209.2,157.16
2680,1.0,0.0,0.0,1.0,1.0,30.8,-71.77,-3200.08,-14968.32,7745.68,-3.92,-150.2,26.16
2700,1.0,0.0,0.0,0.773,1.0,31.32,-72.26,-3320.08,-15224.32,7929.68,153.08,-72.2,-55.84
2719,1.0,0.0,0.0,0.761,1.0,31.79,-72.67,-3132.08,-15124.32,8053.68,265.08,-116.2,10.16
2739,1.0,0.0,0.0,0.817,0.246,32.23,-73.06,-3092.08,-15292.32,8065.68,385.08,-27.2,97.16
2760,1.0,0.0,0.0,0.792,0.382,32.67,-73.4,-3004.08,-15128.32,8145.68,278.08,-5.2,69.16
2779,1.0,0.0,0.0,0.779,0.451,33.1,-73.84,-2784.08,-15120.32,7781.68,-151.92,148.8,-52.84
2799,1.0,0.0,0.0,0.761,1.0,33.48,-74.27,-3160.08,-15472.32,7953.68,-235.92,-59.2,31.16
2820,1.0,0.0,0.0,0.767,1.0,33.83,-74.59,-3200.08,-15296.32,7953.68,257.08,-383.2,184.16
2839,1.0,0.0,0.0,0.748,1.0,34.13,-74.77,-3092.08,-15280.32,8093.68,777.08,-523.2,306.16
2860,1.0,0.0,1.0,0.742,0.587,34.45,-74.87,-2940.08,-15028.32,8257.68,864.08,-286.2,247.16
2879,1.0,0.0,0.0,1.0,1.0,34.8,-74.98,-3096.08,-14964.32,8313.68,562.08,-128.2,96.16
2899,1.0,0.0,0.0,0.974,1.0,35.14,-75.16,-2860.08,-14840.32,8109.68,124.08,-88.2,-5.84
2920,0.994,0.0,0.0,0.673,1.0,35.45,-75.37,-2876.08,-15040.32,8153.68,-96.92,-17.2,-112.84
2939,1.0,0.0,0.0,0.736,1.0,35.74,-75.54,-2848.08,-15096.32,8137.68,95.08,-27.2,-118.84
2959,1.0,0.0,0.0,0.504,0.382,36.05,-75.69,-2992.08,-15124.32,8085.68,136.08,29.8,-186.84
2980,1.0,0.0,0.0,0.729,0.314,36.32,-75.86,-2892.08,-15148.32,7937.68,120.08,-43.2,-165.84
