timestamp,flex_1,flex_2,flex_3,flex_4,flex_5,kalman_pitch,kalman_roll,acc_x,acc_y,acc_z,gyro_x,gyro_y,gyro_z
0,0.0,0.367,1.0,0.814,0.289,10.25,68.96,-4032.56,261.44,21065.2,844.92,-1717.96,-130.98
20,0.0,0.382,1.0,0.825,0.394,-5.51,47.27,-3984.56,317.44,21025.2,2636.92,-3725.96,-508.98
39,0.0,0.389,1.0,0.862,0.341,-16.45,35.23,-2416.56,445.44,19709.2,4229.92,-6313.96,-615.98
59,0.0,0.426,1.0,0.879,0.236,-24.33,27.64,-268.56,529.44,19469.2,4678.92,-3011.96,-458.98
78,0.0,0.36,0.896,0.906,0.289,-28.22,22.03,-1832.56,41.44,21417.2,3746.92,368.04,-55.98
98,0.0,0.389,1.0,0.841,0.446,-31.02,16.28,-1668.56,-2002.56,20981.2,2044.92,1935.04,751.02
118,0.0,0.338,1.0,0.852,0.446,-32.23,12.1,-3836.56,-1374.56,21617.2,1010.92,3488.04,261.02
138,0.0,0.286,1.0,0.825,0.341,-33.42,8.38,-4772.56,-1446.56,21817.2,-1389.08,-673.96,771.02
157,0.0,0.198,1.0,0.835,0.394,-34.84,5.59,-4060.56,-330.56,23881.2,-4059.08,-5326.96,1150.02
177,0.0,0.176,1.0,0.852,0.341,-35.92,2.14,-3824.56,-2394.56,24913.2,-6945.08,-5219.96,1062.02
195,0.0,0.117,1.0,0.928,0.761,-36.5,-1.41,-1064.56,-2938.56,24049.2,-8994.08,3071.04,653.02
215,0.0,0.117,1.0,0.949,0.499,-35.34,-5.21,-504.56,-6138.56,25757.2,-8556.08,13379.04,1484.02
234,0.0,0.088,1.0,0.906,0.499,-32.4,-8.75,-2224.56,-8218.56,26793.2,-6997.08,23733.04,2892.02
253,0.0,0.073,1.0,0.911,0.394,-28.62,-11.49,-4452.56,-9202.56,29237.2,-4082.08,27345.04,6349.02
272,0.0,0.081,1.0,0.857,0.394,-25.24,-13.71,-4672.56,-9278.56,29505.2,-2060.08,26181.04,10792.02
291,0.0,0.0,1.0,0.808,0.289,-22.19,-14.86,-4524.56,-7858.56,30349.2,2280.92,25582.04,17396.02
310,0.0,0.073,1.0,0.776,0.236,-18.87,-14.99,-5376.56,-4770.56,33009.2,4535.92,27660.04,19249.02
330,1.0,0.037,1.0,0.749,0.394,-15.03,-15.44,-5768.56,-3982.56,32673.2,1461.92,31468.04,17568.02
350,1.0,0.037,1.0,0.727,0.394,-11.19,-16.75,-7276.56,-4022.56,33261.2,-4777.08,31468.04,15013.02
369,1.0,0.081,1.0,0.721,0.656,-7.43,-18.11,-9904.56,-5470.56,33177.2,-4754.08,31468.04,16644.02
388,0.989,0.051,1.0,0.732,0.236,-3.54,-19.15,-12552.56,-4530.56,32645.2,-3863.08,31468.04,19082.02
407,0.973,0.081,1.0,0.716,0.394,0.29,-20.04,-13812.56,-4842.56,31901.2,-2655.08,31468.04,20559.02
427,0.95,0.029,1.0,0.689,0.289,4.11,-20.83,-13984.56,-4670.56,31149.2,-1891.08,31468.04,21488.02
447,0.893,0.0,1.0,0.7,0.0,8.21,-21.34,-17296.56,-3854.56,30197.2,-909.08,31468.04,21283.02
467,0.964,0.073,1.0,0.711,0.341,12.24,-21.42,-18024.56,-2938.56,27857.2,1615.92,31468.04,20675.02
487,0.976,0.037,1.0,0.7,0.289,16.42,-21.0,-19688.56,-1074.56,25709.2,3143.92,31468.04,20704.02
507,0.985,0.0,1.0,0.7,0.499,20.81,-20.37,-20928.56,193.44,22897.2,3455.92,31468.04,19770.02
527,0.957,0.029,1.0,0.7,0.551,25.39,-19.68,-21816.56,933.44,20437.2,3127.92,31468.04,17284.02
547,0.888,0.015,1.0,0.7,0.236,30.04,-19.05,-22240.56,569.44,18861.2,3913.92,31468.04,16450.02
567,0.978,0.0,1.0,0.689,0.394,34.8,-17.58,-23156.56,1765.44,17765.2,7135.92,31468.04,16239.02
587,0.973,0.007,1.0,0.721,0.394,39.67,-15.4,-23860.56,2945.44,16033.2,8718.92,30795.04,14328.02
607,0.966,0.007,1.0,0.7,0.341,44.39,-13.18,-25272.56,3069.44,14985.2,8488.92,28460.04,12041.02
627,0.944,0.0,1.0,0.716,0.394,48.53,-11.12,-24676.56,3153.44,14521.2,7271.92,26084.04,10172.02
646,0.87,0.0,1.0,0.721,0.341,52.33,-9.55,-25840.56,2485.44,13905.2,6619.92,22930.04,9619.02
667,0.87,0.0,1.0,0.705,0.341,55.67,-7.18,-24604.56,3057.44,13101.2,9036.92,20980.04,10566.02
687,0.875,0.0,0.995,0.504,0.341,58.8,-3.87,-25020.56,3925.44,12661.2,11109.92,20346.04,10873.02
706,0.891,0.0,1.0,0.683,0.446,61.55,0.13,-26588.56,5145.44,12129.2,10489.92,18384.04,9647.02
726,0.888,0.0,1.0,0.651,0.026,63.82,4.19,-26572.56,4645.44,10889.2,8247.92,14292.04,8051.02
746,0.79,0.0,1.0,0.678,0.499,65.59,8.23,-24812.56,4109.44,10409.2,8021.92,11138.04,6509.02
766,0.863,0.0,1.0,0.678,0.184,66.67,12.8,-24796.56,5513.44,10193.2,8218.92,9508.04,4648.02
786,0.941,0.0,1.0,0.662,0.604,67.22,16.65,-24700.56,5589.44,10837.2,7465.92,6789.04,3921.02
806,0.957,0.0,1.0,0.673,0.814,67.6,19.92,-25240.56,5101.44,10905.2,6038.92,4607.04,1752.02
826,0.968,0.0,1.0,0.64,0.604,67.68,23.2,-25872.56,5489.44,10649.2,4784.92,2748.04,-959.98
846,0.966,0.0,0.896,0.646,0.446,67.33,26.59,-25356.56,6265.44,10133.2,2920.92,1160.04,-1518.98
866,0.971,0.0,0.995,0.651,0.289,67.2,29.34,-25232.56,4945.44,10541.2,3504.92,576.04,-415.98
886,0.882,0.0,1.0,0.629,0.341,66.76,32.11,-25976.56,6581.44,10957.2,3302.92,719.04,209.02
906,0.962,0.0,0.995,0.646,0.341,66.38,34.63,-26180.56,6193.44,10957.2,2862.92,340.04,1382.02
926,0.969,0.0,1.0,0.651,0.499,66.18,37.09,-25968.56,5969.44,10461.2,1360.92,868.04,1130.02
946,0.695,0.0,1.0,0.624,0.446,66.05,39.22,-27204.56,6013.44,10589.2,204.92,664.04,1461.02
966,0.886,0.0,1.0,0.662,0.394,65.76,41.68,-26788.56,6497.44,10073.2,255.92,256.04,2143.02
986,0.717,0.0,1.0,0.667,0.499,65.63,44.04,-27136.56,6425.44,10021.2,-7.08,878.04,1813.02
1006,0.752,0.0,1.0,0.635,0.289,65.48,46.68,-28008.56,7121.44,9473.2,-65.08,1099.04,1653.02
1026,0.852,0.0,1.0,0.613,0.394,65.37,49.46,-28048.56,6941.44,8913.2,-683.08,976.04,1313.02
1046,0.896,0.0,1.0,0.613,0.499,65.27,52.49,-28592.56,6917.44,8421.2,-232.08,728.04,2149.02
1066,0.889,0.0,1.0,0.651,0.236,65.12,55.64,-28380.56,7189.44,8121.2,397.92,862.04,2555.02
1086,0.831,0.0,0.765,0.651,0.289,64.88,58.55,-29556.56,7645.44,8093.2,-167.08,97.04,2075.02
1106,0.886,0.0,1.0,0.629,0.0,64.48,61.41,-29248.56,7837.44,7865.2,-489.08,-676.96,1283.02
1126,0.888,0.0,1.0,0.651,0.184,64.01,63.8,-29212.56,7889.44,8417.2,-967.08,-1279.96,557.02
1146,0.765,0.0,1.0,0.646,0.184,63.61,66.0,-29136.56,7585.44,8781.2,-495.08,-1411.96,376.02
1166,0.779,0.0,1.0,0.646,0.604,63.34,68.18,-29268.56,7293.44,8701.2,-392.08,-1173.96,137.02
1186,0.742,0.0,1.0,0.646,1.0,63.17,70.07,-29904.56,7477.44,9213.2,170.92,-659.96,353.02
1206,0.8,0.0,1.0,0.646,0.236,62.99,71.74,-30060.56,7477.44,9405.2,-86.08,-894.96,554.02
1226,0.797,0.0,1.0,0.651,0.289,62.93,73.78,-30076.56,6853.44,8565.2,-314.08,-927.96,419.02
1246,0.893,0.0,1.0,0.689,0.656,62.87,75.77,-29932.56,7293.44,8585.2,242.92,-450.96,570.02
1266,0.914,0.0,1.0,0.651,0.236,62.8,77.41,-30444.56,7481.44,9057.2,117.92,-551.96,542.02
1286,0.989,0.0,1.0,0.651,0.131,62.73,78.89,-30504.56,7273.44,9197.2,76.92,-923.96,241.02
1306,0.944,0.0,1.0,0.629,0.184,62.61,80.31,-30340.56,7445.44,9141.2,-69.08,-1089.96,-360.98
1325,0.978,0.0,1.0,0.646,0.814,62.55,81.61,-30080.56,7225.44,9101.2,-293.08,-1065.96,-847.98
1344,0.911,0.0,1.0,0.646,0.604,62.66,82.79,-29944.56,6661.44,9173.2,-390.08,-604.96,-1060.98
1363,0.886,0.0,1.0,0.651,0.184,62.79,83.99,-30052.56,6717.44,9097.2,-160.08,-345.96,-661.98
1382,0.905,0.0,1.0,0.64,0.0,62.98,85.34,-29788.56,6445.44,8909.2,471.92,-223.96,7.02
1402,0.904,0.0,1.0,0.602,0.236,63.09,86.76,-30020.56,7005.44,8793.2,697.92,8.04,500.02
1422,0.911,0.0,1.0,0.651,1.0,63.13,88.06,-30244.56,7073.44,8769.2,287.92,-533.96,202.02
1442,0.847,0.0,1.0,0.624,0.866,63.16,89.35,-29820.56,6785.44,8629.2,66.92,-811.96,-552.98
1462,0.889,0.0,1.0,0.635,0.0,63.07,90.39,-29956.56,7205.44,8953.2,57.92,-1283.96,-751.98
1482,1.0,0.0,1.0,0.646,0.394,63.01,91.36,-29792.56,6769.44,8977.2,-56.08,-1523.96,-810.98
1501,1.0,0.0,1.0,0.646,0.184,63.09,92.18,-29748.56,6473.44,9137.2,254.92,-1208.96,-551.98
1521,1.0,0.0,1.0,0.651,0.0,63.11,92.82,-29608.56,6785.44,9589.2,857.92,-933.96,280.02
1541,0.985,0.0,1.0,0.613,0.236,63.19,93.28,-29716.56,6953.44,9709.2,195.92,-473.96,342.02
1561,1.0,0.0,0.995,0.635,0.446,63.35,93.69,-30076.56,6605.44,9745.2,439.92,-456.96,412.02
1581,0.964,0.0,0.896,0.651,0.0,63.42,94.16,-30200.56,6997.44,9529.2,28.92,-722.96,362.02
1601,0.96,0.0,1.0,0.651,0.289,63.55,94.56,-29456.56,6773.44,9505.2,-261.08,-291.96,9.02
1621,0.953,0.0,1.0,0.635,0.289,63.72,94.93,-29956.56,7033.44,9625.2,134.92,154.04,55.02
1641,0.916,0.0,1.0,0.635,0.236,63.89,95.34,-29888.56,7017.44,9541.2,320.92,128.04,289.02
1661,0.964,0.0,1.0,0.618,0.604,64.08,95.72,-29968.56,6905.44,9469.2,58.92,156.04,341.02
1681,0.998,0.0,1.0,0.651,0.499,64.19,96.15,-29928.56,7081.44,9353.2,56.92,-199.96,151.02
1701,0.987,0.0,1.0,0.64,0.026,64.29,96.48,-29652.56,7105.44,9361.2,-348.08,-80.96,-181.98
1720,0.992,0.0,1.0,0.651,0.499,64.43,96.74,-29752.56,7129.44,9485.2,62.92,129.04,-91.98
1740,1.0,0.0,1.0,0.635,0.341,64.56,97.02,-30004.56,7077.44,9453.2,-12.08,-74.96,-117.98
1760,1.0,0.0,1.0,0.58,0.604,64.59,97.31,-29864.56,7301.44,9433.2,47.92,-426.96,-180.98
1780,0.996,0.0,1.0,0.651,0.289,64.6,97.35,-29636.56,7217.44,9729.2,-366.08,-522.96,-708.98
1799,1.0,0.0,1.0,0.651,0.341,64.67,97.48,-29000.56,6873.44,9477.2,-287.08,-352.96,-1084.98
1818,0.982,0.0,1.0,0.651,0.446,64.85,97.66,-29448.56,6917.44,9369.2,-189.08,258.04,-1046.98
1838,1.0,0.0,1.0,0.646,0.341,64.99,97.96,-30384.56,6925.44,9265.2,58.92,-314.96,-326.98
1858,0.877,0.0,1.0,0.635,0.289,64.93,98.29,-29888.56,7053.44,9081.2,-248.08,-1341.96,148.02
1878,0.962,0.0,1.0,0.64,0.079,64.87,98.63,-29460.56,7021.44,8925.2,-583.08,-1236.96,273.02
1898,0.975,0.0,1.0,0.64,0.289,64.84,98.85,-29168.56,7045.44,9313.2,185.92,-896.96,388.02
1918,1.0,0.0,1.0,0.635,0.079,64.94,98.9,-29940.56,7125.44,9585.2,87.92,-308.96,-203.98
1938,0.909,0.0,1.0,0.651,1.0,65.02,98.95,-30184.56,7089.44,9557.2,118.92,-573.96,-230.98
1958,1.0,0.0,1.0,0.635,0.394,65.11,98.8,-29940.56,6873.44,9893.2,171.92,-592.96,118.02
1978,0.898,0.0,1.0,0.64,1.0,65.24,98.62,-30112.56,6733.44,9925.2,160.92,-607.96,584.02
1998,1.0,0.0,1.0,0.646,0.0,65.38,98.55,-29264.56,6785.44,9789.2,508.92,-50.96,595.02
2018,1.0,0.0,1.0,0.64,0.394,65.6,98.43,-30252.56,7101.44,9837.2,180.92,399.04,252.02
2038,1.0,0.0,1.0,0.57,1.0,65.68,98.45,-30408.56,7337.44,9545.2,113.92,-287.96,225.02
2058,1.0,0.0,1.0,0.64,0.0,65.76,98.47,-29556.56,6857.44,9465.2,48.92,-543.96,202.02
2078,1.0,0.0,1.0,0.646,0.289,65.94,98.35,-30144.56,6813.44,9717.2,117.92,-132.96,167.02
2098,1.0,0.0,1.0,0.646,0.394,66.03,98.3,-30300.56,6921.44,9621.2,246.92,-612.96,512.02
2118,1.0,0.0,1.0,0.64,0.184,66.06,98.15,-30136.56,7277.44,9765.2,-13.08,-584.96,243.02
2138,1.0,0.0,1.0,0.635,0.814,66.09,97.8,-30304.56,7185.44,10013.2,-410.08,-725.96,35.02
2158,1.0,0.0,1.0,0.635,0.184,66.09,97.44,-29860.56,7105.44,10029.2,-490.08,-795.96,12.02
2178,1.0,0.0,1.0,0.635,0.236,66.24,97.12,-29516.56,6393.44,9813.2,-566.08,-535.96,-211.98
2197,1.0,0.0,1.0,0.651,0.341,66.43,96.79,-30048.56,7113.44,10077.2,55.92,388.04,-181.98
2217,1.0,0.081,1.0,0.651,0.289,66.61,96.48,-30288.56,7049.44,10033.2,-87.08,205.04,-219.98
2237,1.0,0.0,1.0,0.651,0.079,66.7,96.26,-29612.56,6925.44,9765.2,-399.08,-247.96,-229.98
2256,1.0,0.0,1.0,0.646,0.446,66.89,95.96,-29792.56,6789.44,9865.2,-343.08,162.04,-461.98
2276,1.0,0.0,1.0,0.64,0.341,66.99,95.84,-29908.56,7161.44,9649.2,-256.08,-56.96,-22.98
2295,1.0,0.0,1.0,0.64,0.341,67.18,95.79,-29708.56,6465.44,9449.2,-92.08,-115.96,444.02
2315,1.0,0.0,1.0,0.646,0.184,67.43,95.66,-29656.56,6541.44,9869.2,878.92,495.04,770.02
2335,1.0,0.0,1.0,0.629,0.446,67.54,95.48,-30144.56,7333.44,9961.2,468.92,300.04,561.02
2355,1.0,0.0,1.0,0.646,0.866,67.68,95.34,-29924.56,6853.44,9793.2,369.92,24.04,362.02
2375,1.0,0.0,1.0,0.646,0.341,67.78,95.04,-30296.56,7133.44,10013.2,-60.08,-13.96,96.02
2395,1.0,0.0,1.0,0.608,0.0,67.77,94.83,-30076.56,7357.44,9849.2,-73.08,-400.96,190.02
2415,1.0,0.0,1.0,0.646,0.131,67.73,94.59,-29664.56,7341.44,9709.2,-733.08,-510.96,-288.98
2434,1.0,0.0,1.0,0.651,0.289,67.76,94.34,-29640.56,7225.44,9613.2,-1068.08,-181.96,-710.98
2453,1.0,0.0,1.0,0.624,0.551,67.94,94.12,-29656.56,6569.44,9825.2,146.92,95.04,26.02
2473,1.0,0.0,1.0,0.618,0.184,68.04,93.9,-30016.56,7201.44,9953.2,209.92,201.04,-22.98
2493,1.0,0.0,1.0,0.64,0.446,68.1,93.56,-30248.56,7129.44,9945.2,-612.08,-187.96,-511.98
2513,1.0,0.0,1.0,0.635,0.026,68.13,93.19,-30012.56,6645.44,9889.2,-822.08,-875.96,-70.98
2532,1.0,0.0,1.0,0.624,0.656,68.15,92.9,-29100.56,6701.44,9797.2,-648.08,-620.96,106.02
2552,1.0,0.0,1.0,0.613,0.656,68.17,92.72,-29452.56,7129.44,9785.2,-187.08,-163.96,218.02
2572,1.0,0.0,1.0,0.651,0.341,68.18,92.57,-29836.56,7237.44,9773.2,-104.08,-354.96,285.02
2592,1.0,0.0,1.0,0.64,0.341,68.14,92.38,-29912.56,7465.44,9817.2,-288.08,-403.96,2.02
2612,1.0,0.0,1.0,0.64,0.289,68.14,91.97,-30140.56,7005.44,10093.2,-683.08,-763.96,-162.98
2631,1.0,0.0,1.0,0.64,0.236,68.07,91.7,-29260.56,7117.44,9969.2,-113.08,-757.96,-55.98
2650,0.992,0.0,1.0,0.618,0.814,68.11,91.43,-29524.56,7169.44,9981.2,-259.08,-93.96,-295.98
2669,0.916,0.0,1.0,0.635,0.446,68.18,91.12,-30144.56,7173.44,10109.2,-31.08,-134.96,-68.98
2688,0.921,0.0,1.0,0.635,0.341,68.13,90.88,-30056.56,7453.44,9973.2,-254.08,-587.96,34.02
2708,0.964,0.0,1.0,0.618,1.0,68.14,90.53,-30172.56,7033.44,10085.2,-542.08,-682.96,67.02
2728,1.0,0.0,1.0,0.64,0.446,68.18,90.19,-29368.56,6949.44,10297.2,337.92,-233.96,393.02
2748,1.0,0.0,1.0,0.64,0.394,68.27,89.77,-30000.56,6985.44,10417.2,35.92,-26.96,193.02
2768,1.0,0.0,1.0,0.629,0.761,68.29,89.44,-30068.56,7293.44,10185.2,-327.08,-255.96,-118.98
2787,1.0,0.0,1.0,0.651,0.446,68.37,89.17,-29812.56,6817.44,10005.2,-231.08,-303.96,176.02
2807,1.0,0.0,1.0,0.635,0.341,68.46,88.97,-29888.56,7037.44,10161.2,539.92,-27.96,1110.02
2827,1.0,0.0,1.0,0.646,0.289,68.48,88.83,-29764.56,7181.44,10081.2,611.92,-210.96,1262.02
2847,1.0,0.0,1.0,0.651,0.079,68.49,88.63,-29728.56,7305.44,10149.2,312.92,-188.96,747.02
2867,1.0,0.0,1.0,0.635,0.289,68.51,88.43,-29544.56,7225.44,10045.2,53.92,-76.96,54.02
2887,0.994,0.0,1.0,0.646,0.026,68.54,88.25,-30016.56,7513.44,10049.2,26.92,38.04,-392.98
2907,0.982,0.0,1.0,0.635,0.0,68.52,88.08,-30096.56,7229.44,9993.2,33.92,-569.96,-40.98
2927,0.992,0.0,1.0,0.651,0.184,68.44,87.94,-29700.56,7341.44,10013.2,267.92,-748.96,191.02
2947,1.0,0.0,1.0,0.651,0.604,68.41,87.7,-29536.56,7201.44,10201.2,246.92,-491.96,-64.98
2967,1.0,0.0,1.0,0.646,0.236,68.43,87.51,-29736.56,7269.44,10137.2,241.92,-187.96,-437.98
2987,1.0,0.0,1.0,0.646,0.394,68.46,87.14,-30136.56,7089.44,10381.2,37.92,-374.96,-471.98
