timestamp,flex_1,flex_2,flex_3,flex_4,flex_5,kalman_pitch,kalman_roll,acc_x,acc_y,acc_z,gyro_x,gyro_y,gyro_z
0,0.686,0.412,1.0,0.241,0.345,34.23,86.51,101.68,-1817.12,16019.28,1924.78,2217.88,808.44
20,0.276,0.419,0.0,0.141,0.0,8.98,46.3,-642.32,-1777.12,16283.28,5412.78,1283.88,2144.44
39,0.393,0.197,0.0,0.155,0.0,-5.97,26.52,149.68,62.88,16195.28,5473.78,51.88,1141.44
60,0.393,0.121,0.0,0.142,0.0,-15.54,12.73,597.68,-933.12,15819.28,2682.78,-560.12,-1028.56
80,0.51,0.253,0.147,0.16,0.0,-22.41,2.89,1917.68,-1253.12,15563.28,3260.78,1394.88,-859.56
100,0.628,0.349,0.0,0.243,0.0,-25.3,-2.97,-438.32,-2749.12,20247.28,5067.78,1754.88,1630.44
120,0.51,0.64,0.0,0.269,0.345,-27.48,-5.95,-818.32,-1493.12,23639.28,7086.78,-2077.12,1954.44
140,0.452,0.508,0.147,0.287,1.0,-30.36,-8.23,1569.68,-261.12,22031.28,6439.78,-2544.12,-178.56
160,0.334,0.419,0.428,0.276,1.0,-31.88,-10.48,1865.68,-149.12,24767.28,651.78,1382.88,-189.56
180,0.452,0.211,0.0,0.43,0.0,-32.36,-13.11,2373.68,-1937.12,27259.28,-2772.22,5214.88,2313.44
200,0.1,0.391,0.829,0.626,0.0,-31.78,-16.13,3149.68,-5785.12,27215.28,-1760.22,11753.88,5394.44
220,0.628,0.135,0.0,0.798,1.0,-30.22,-18.56,3217.68,-6945.12,28891.28,108.78,17822.88,6810.44
240,0.217,0.17,0.0,0.739,0.0,-27.81,-20.04,3221.68,-5341.12,30007.28,2527.78,24559.88,7971.44
260,0.1,0.025,0.0,0.536,0.0,-24.69,-21.66,3573.68,-6425.12,28927.28,2452.78,31436.88,8939.44
280,0.569,0.287,0.0,0.382,0.0,-21.56,-23.47,2481.68,-7981.12,28899.28,1640.78,31547.88,8956.44
300,0.334,0.204,0.0,0.426,0.0,-18.42,-24.8,2017.68,-8705.12,31471.28,3132.78,31547.88,10955.44
320,0.217,0.121,0.0,0.609,0.0,-15.43,-25.9,1549.68,-9993.12,30851.28,5404.78,31547.88,12768.44
340,0.276,0.163,0.869,0.617,1.0,-12.59,-27.1,1617.68,-12161.12,30143.28,6152.78,31547.88,15587.44
360,0.217,0.315,0.468,0.559,0.0,-9.64,-27.58,-1434.32,-10257.12,30071.28,9267.78,31547.88,19708.44
380,0.276,0.0,0.0,0.324,0.0,-6.77,-27.38,-2238.32,-9653.12,31267.28,12592.78,31547.88,21538.44
400,0.804,0.135,0.0,0.314,0.0,-4.25,-26.46,-3450.32,-3877.12,26899.28,15034.78,31547.88,22528.44
420,0.51,0.156,0.0,0.308,0.6,-1.87,-26.69,-4314.32,-5165.12,24375.28,10208.78,31547.88,23446.44
440,0.276,0.066,0.0,0.277,0.0,0.52,-26.65,-6234.32,-2493.12,23051.28,10058.78,31547.88,24723.44
460,0.276,0.225,0.548,0.2,1.0,2.68,-26.22,-6794.32,-741.12,21159.28,11753.78,31547.88,24976.44
480,0.217,0.0,0.0,0.244,0.0,4.96,-26.23,-8830.32,-1397.12,17771.28,13029.78,31547.88,22686.44
500,0.158,0.0,1.0,0.212,0.0,6.34,-24.51,-8946.32,5170.88,14355.28,13433.78,31547.88,21202.44
520,0.041,0.184,0.0,0.168,0.0,9.07,-22.81,-12126.32,5442.88,14547.28,12905.78,31547.88,20316.44
540,0.158,0.08,1.0,0.166,0.0,12.81,-20.83,-13838.32,6726.88,11751.28,9756.78,31547.88,18510.44
560,0.217,0.246,1.0,0.102,0.0,17.53,-17.52,-14146.32,7438.88,9263.28,6587.78,31547.88,17956.44
580,0.158,0.0,0.0,0.209,0.0,21.89,-10.26,-14698.32,8726.88,6403.28,3382.78,31547.88,18359.44
600,0.0,0.0,0.629,0.231,0.685,27.89,-3.39,-17438.32,7978.88,6795.28,2431.78,31547.88,17634.44
620,0.0,0.0,1.0,0.225,0.0,32.41,3.12,-19174.32,10538.88,6127.28,5140.78,28275.88,15525.44
640,0.628,0.114,0.0,0.171,1.0,34.88,10.0,-18390.32,12442.88,3431.28,3969.78,22711.88,12828.44
660,0.041,0.0,1.0,0.168,1.0,36.1,16.3,-17866.32,13686.88,1819.28,315.78,18279.88,10526.44
680,0.158,0.349,0.0,0.241,1.0,36.67,22.45,-18070.32,13530.88,871.28,-1041.22,14441.88,8895.44
700,0.217,0.184,1.0,0.177,0.0,37.06,28.47,-19622.32,13630.88,715.28,-481.22,11099.88,6921.44
720,0.393,0.0,0.0,0.241,0.43,37.14,33.91,-21338.32,15210.88,1999.28,1258.78,7195.88,5176.44
740,0.0,0.0,0.0,0.208,1.0,36.66,39.05,-20942.32,15310.88,1659.28,36.78,4130.88,3425.44
760,0.217,0.0,1.0,0.204,1.0,36.38,44.24,-21670.32,13614.88,1651.28,-501.22,2931.88,1940.44
780,0.041,0.0,0.0,0.268,0.0,36.27,49.16,-23138.32,13990.88,2351.28,745.78,2068.88,975.44
800,0.217,0.0,0.0,0.213,0.685,36.29,53.71,-24950.32,13902.88,2815.28,291.78,693.88,15.44
820,0.041,0.0,0.0,0.246,1.0,36.31,57.79,-26406.32,13390.88,3931.28,28.78,-1828.12,-434.56
840,0.217,0.0,1.0,0.258,0.0,36.35,61.84,-26270.32,12466.88,4167.28,127.78,-2877.12,-534.56
860,0.217,0.0,0.0,0.161,0.43,36.7,65.73,-26542.32,12002.88,4599.28,666.78,-1935.12,-218.56
880,0.217,0.287,0.0,0.237,1.0,37.46,69.14,-27606.32,11614.88,6035.28,2520.78,-1071.12,398.44
900,0.569,0.0,0.0,0.241,0.0,38.28,72.51,-28058.32,11986.88,5907.28,3282.78,-283.12,494.44
920,0.158,0.0,0.0,0.254,0.0,39.01,76.05,-27606.32,12274.88,4639.28,1836.78,306.88,188.44
940,0.0,0.0,0.0,0.204,0.0,39.78,79.35,-27170.32,12170.88,4215.28,-203.22,1050.88,-738.56
960,0.1,0.0,1.0,0.2,0.0,40.52,82.48,-27078.32,12146.88,3787.28,-1611.22,1300.88,-903.56
980,0.0,0.232,1.0,0.168,1.0,41.29,85.62,-27514.32,11570.88,4083.28,-886.22,550.88,-314.56
1000,0.1,0.038,0.709,0.218,0.174,41.79,88.45,-27378.32,12598.88,4347.28,260.78,-286.12,513.44
1020,0.393,0.0,0.0,0.172,1.0,42.12,91.05,-27190.32,12822.88,4419.28,67.78,-1114.12,887.44
1040,0.0,0.0,0.0,0.17,0.77,42.38,93.49,-26406.32,13090.88,4323.28,-161.22,-755.12,644.44
1060,0.0,0.453,0.0,0.213,1.0,42.8,95.63,-26998.32,13014.88,4659.28,-702.22,-335.12,116.44
1080,0.0,0.0,0.026,0.266,0.515,43.26,97.51,-27086.32,13174.88,5167.28,-281.22,-200.12,-280.56
1100,0.041,0.0,1.0,0.227,0.0,43.81,99.53,-27362.32,12686.88,4915.28,73.78,-155.12,-211.56
1120,0.0,0.0,0.0,0.212,0.685,44.33,101.72,-27182.32,12674.88,4599.28,1045.78,32.88,-73.56
1140,0.041,0.0,1.0,0.204,0.0,44.82,103.81,-27082.32,12998.88,4395.28,909.78,302.88,-177.56
1160,0.041,0.0,0.669,0.216,0.0,45.42,105.62,-27434.32,12562.88,4547.28,-509.22,404.88,-489.56
1180,0.217,0.0,0.789,0.216,0.0,46.03,107.37,-27334.32,12162.88,4359.28,-1382.22,298.88,-495.56
1200,0.0,0.0,0.0,0.213,1.0,46.62,109.16,-27238.32,11914.88,4575.28,-392.22,-66.12,105.44
1220,0.0,0.0,0.709,0.241,1.0,47.02,110.83,-27034.32,12742.88,4659.28,901.78,-326.12,642.44
1240,0.1,0.0,0.428,0.237,0.0,47.4,112.45,-27218.32,12790.88,4643.28,1114.78,-508.12,553.44
1260,0.0,0.0,0.0,0.25,0.0,47.72,113.91,-27058.32,12986.88,4471.28,421.78,-473.12,146.44
1280,0.0,0.066,0.0,0.241,0.0,48.11,115.24,-26818.32,12626.88,4303.28,-860.22,-79.12,-387.56
1300,0.0,0.156,1.0,0.192,0.0,48.65,116.38,-27210.32,12310.88,4751.28,-973.22,181.88,-522.56
1320,0.0,0.038,0.0,0.184,1.0,49.2,117.55,-27590.32,12166.88,5051.28,352.78,-223.12,59.44
1340,0.041,0.0,0.0,0.2,1.0,49.61,118.85,-27194.32,12694.88,4755.28,1621.78,-185.12,385.44
1360,0.041,0.025,0.0,0.214,0.0,49.96,120.05,-26798.32,12966.88,4443.28,877.78,249.88,-82.56
1380,0.276,0.0,0.0,0.217,0.43,50.39,120.9,-27022.32,12886.88,4619.28,-663.22,473.88,-636.56
1400,0.041,0.073,1.0,0.213,0.515,50.88,121.72,-27234.32,12362.88,4723.28,-931.22,204.88,-515.56
1420,0.393,0.066,0.066,0.215,0.0,51.3,122.57,-27102.32,12530.88,4819.28,46.78,67.88,-90.56
1440,0.158,0.0,0.0,0.191,0.0,51.67,123.55,-27066.32,12486.88,4711.28,994.78,-218.12,267.44
1460,0.0,0.0,0.548,0.227,1.0,51.97,124.44,-26798.32,12610.88,4795.28,1158.78,-333.12,393.44
1480,0.041,0.0,0.0,0.205,1.0,52.3,125.12,-26830.32,12690.88,4795.28,224.78,-62.12,181.44
1500,0.0,0.0,0.0,0.217,0.685,52.7,125.56,-27198.32,12650.88,4931.28,-824.22,157.88,-264.56
1520,0.276,0.0,0.227,0.241,0.0,53.1,126.11,-27134.32,12234.88,4591.28,-1265.22,-5.12,-233.56
1540,0.628,0.0,1.0,0.196,0.0,53.47,126.85,-26990.32,11998.88,4743.28,289.78,-376.12,454.44
1560,0.217,0.0,0.0,0.204,1.0,53.74,127.54,-27098.32,12806.88,4747.28,1414.78,-247.12,642.44
1580,0.276,0.419,0.0,0.235,1.0,53.96,128.13,-27022.32,13154.88,4431.28,670.78,23.88,119.44
1600,0.452,0.0,1.0,0.319,1.0,54.26,128.51,-27142.32,12826.88,4487.28,-747.22,189.88,-549.56
1620,0.452,0.0,1.0,0.259,0.6,54.63,128.95,-27022.32,12134.88,4415.28,-1240.22,173.88,-881.56
1640,0.0,0.0,0.869,0.273,0.0,55.02,129.62,-26914.32,11930.88,4215.28,-349.22,299.88,-781.56
1660,0.0,0.0,1.0,0.153,1.0,55.35,130.04,-27454.32,12554.88,4635.28,241.78,70.88,-266.56
1680,0.041,0.0,0.709,0.284,1.0,55.62,130.34,-27622.32,12354.88,4859.28,36.78,-677.12,215.44
1700,0.158,0.0,0.347,0.231,1.0,55.83,130.7,-26970.32,12318.88,4563.28,-237.22,-589.12,123.44
1720,0.041,0.0,0.0,0.225,0.0,56.11,130.97,-27114.32,12470.88,4663.28,-186.22,-60.12,77.44
1740,0.041,0.094,0.548,0.199,0.0,56.42,131.21,-27410.32,12734.88,4619.28,23.78,282.88,211.44
1760,0.041,0.038,1.0,0.252,1.0,56.7,131.35,-27478.32,12762.88,4863.28,170.78,90.88,312.44
1780,0.041,0.0,0.869,0.186,0.0,56.92,131.52,-27482.32,12738.88,4659.28,-50.22,-262.12,209.44
1800,0.041,0.0,0.0,0.193,0.0,57.13,131.76,-26694.32,12466.88,4431.28,-302.22,55.88,26.44
1820,0.158,0.0,1.0,0.168,0.345,57.42,131.98,-26886.32,12478.88,4523.28,-40.22,469.88,32.44
1840,0.041,0.0,0.0,0.213,0.0,57.69,132.0,-27470.32,12890.88,5091.28,685.78,198.88,127.44
1860,0.0,0.018,1.0,0.21,1.0,57.86,132.13,-27122.32,12918.88,4587.28,283.78,35.88,-161.56
1880,0.1,0.0,0.0,0.181,0.0,58.05,132.17,-26990.32,12694.88,4411.28,-850.22,183.88,-672.56
1900,0.041,0.0,0.0,0.219,0.0,58.35,132.18,-27198.32,12106.88,4767.28,-809.22,52.88,-482.56
1920,0.569,0.018,1.0,0.236,1.0,58.62,132.28,-27202.32,12162.88,4935.28,401.78,-134.12,31.44
1940,0.276,0.0,0.0,0.279,0.0,58.84,132.35,-27274.32,12438.88,4839.28,458.78,-122.12,9.44
1960,0.217,0.0,0.0,0.181,0.0,59.04,132.39,-27418.32,12370.88,4659.28,-204.22,-239.12,-64.56
1980,0.0,0.0,0.468,0.206,0.0,59.27,132.31,-27186.32,12270.88,4815.28,-652.22,-83.12,-40.56
2000,0.041,0.0,0.0,0.225,0.0,59.53,132.23,-27234.32,12322.88,4723.28,-697.22,262.88,-50.56
2020,0.0,0.135,0.0,0.233,0.0,59.81,132.29,-27394.32,12174.88,4775.28,192.78,191.88,244.44
2040,0.041,0.0,0.0,0.223,0.0,59.91,132.31,-27158.32,12882.88,4715.28,756.78,-166.12,454.44
2060,0.0,0.0,0.267,0.255,0.515,59.95,132.28,-27038.32,12998.88,4479.28,150.78,-233.12,246.44
2080,0.393,0.0,0.0,0.213,0.0,60.06,132.13,-26990.32,12770.88,4583.28,-652.22,40.88,-200.56
2100,0.0,0.0,0.0,0.202,0.0,60.24,131.95,-27126.32,12530.88,4647.28,-987.22,177.88,-283.56
2120,0.0,0.011,0.869,0.169,0.0,60.47,131.88,-27218.32,12078.88,4903.28,-60.22,-78.12,159.44
2140,0.158,0.398,0.0,0.168,1.0,60.64,132.0,-27190.32,12434.88,4707.28,1242.78,-14.12,514.44
2160,0.0,0.0,0.0,0.091,1.0,60.78,132.1,-27126.32,12610.88,4427.28,799.78,215.88,202.44
2180,0.041,0.163,0.066,0.205,0.0,60.94,131.98,-27346.32,12598.88,4555.28,-385.22,179.88,-247.56
2200,0.158,0.0,0.227,0.18,0.43,61.12,131.76,-27242.32,12278.88,4603.28,-1243.22,97.88,-334.56
2220,0.217,0.197,0.106,0.201,1.0,61.34,131.66,-27170.32,12010.88,4711.28,-515.22,107.88,88.44
2240,0.0,0.163,0.0,0.185,0.77,61.52,131.66,-27210.32,12370.88,4735.28,723.78,166.88,445.44
2260,0.158,0.0,0.0,0.148,0.0,61.62,131.62,-27198.32,12666.88,4527.28,452.78,127.88,282.44
2280,0.158,0.0,0.388,0.131,1.0,61.73,131.54,-27138.32,12490.88,4479.28,-140.22,85.88,55.44
2300,0.0,0.232,0.0,0.171,1.0,61.81,131.35,-27098.32,12586.88,4551.28,-528.22,-17.12,28.44
2320,0.0,0.0,1.0,0.152,1.0,61.93,131.26,-26914.32,12462.88,4351.28,-407.22,295.88,30.44
2340,0.0,0.184,0.0,0.193,0.0,62.09,131.24,-27314.32,12558.88,4267.28,-2.22,604.88,-1.56
2360,0.0,0.0,0.0,0.143,0.0,62.18,131.1,-27766.32,12894.88,4419.28,-29.22,117.88,-5.56
2380,0.0,0.121,0.0,0.186,1.0,62.22,130.9,-27538.32,12630.88,4463.28,-568.22,-332.12,60.44
2400,0.0,0.0,0.0,0.097,1.0,62.28,130.73,-26926.32,12602.88,4487.28,-376.22,112.88,126.44
2420,0.041,0.0,0.468,0.181,1.0,62.47,130.43,-27078.32,12498.88,4963.28,-165.22,576.88,124.44
2440,0.0,0.0,0.91,0.177,0.0,62.63,130.25,-26990.32,12566.88,4883.28,518.78,648.88,143.44
2460,0.0,0.0,1.0,0.2,1.0,62.72,130.13,-26902.32,12746.88,4463.28,184.78,555.88,1.44
2480,0.041,0.253,0.0,0.172,0.6,62.76,129.85,-27106.32,12734.88,4579.28,-602.22,113.88,-102.56
2500,0.0,0.19,0.0,0.154,0.0,62.85,129.69,-27130.32,12182.88,4763.28,-60.22,-219.12,165.44
2520,0.0,0.0,0.0,0.18,1.0,62.92,129.57,-26942.32,12402.88,4871.28,772.78,-14.12,355.44
2540,0.0,0.0,1.0,0.146,0.0,63.01,129.43,-26934.32,12562.88,4823.28,769.78,267.88,143.44
2560,0.0,0.197,0.0,0.202,0.855,63.07,129.23,-26978.32,12702.88,4927.28,800.78,168.88,-133.56
2580,0.0,0.0,0.0,0.187,0.0,63.06,129.05,-26602.32,12750.88,4539.28,113.78,197.88,-543.56
2600,0.276,0.0,0.0,0.149,1.0,63.14,128.93,-26886.32,12510.88,4175.28,-654.22,563.88,-902.56
2620,0.158,0.0,0.026,0.209,0.77,63.24,128.87,-27510.32,12222.88,4259.28,-407.22,53.88,-724.56
2640,0.217,0.0,0.0,0.231,1.0,63.19,129.0,-27338.32,12350.88,4191.28,969.78,-609.12,-116.56
2660,0.0,0.0,1.0,0.206,0.0,63.07,129.16,-27326.32,12722.88,4051.28,1431.78,-777.12,-108.56
2680,0.0,0.0,0.0,0.194,0.26,62.92,129.15,-27246.32,12810.88,4263.28,912.78,-999.12,-385.56
2700,0.041,0.0,1.0,0.158,0.345,62.85,128.93,-27006.32,12362.88,4895.28,553.78,-1078.12,-492.56
2720,0.276,0.0,0.0,0.231,0.0,62.86,128.74,-26546.32,12114.88,4835.28,273.78,-540.12,-564.56
2740,0.217,0.0,0.468,0.207,0.26,62.91,128.47,-26770.32,12330.88,4911.28,270.78,-182.12,-467.56
2760,0.0,0.045,0.0,0.212,0.0,62.92,128.36,-27162.32,12278.88,4615.28,429.78,-580.12,-248.56
2780,0.0,0.0,0.508,0.216,0.0,62.89,128.24,-27058.32,12290.88,4743.28,836.78,-931.12,-194.56
2800,0.0,0.0,0.0,0.192,1.0,62.8,128.19,-26862.32,12430.88,4199.28,179.78,-739.12,-618.56
2820,0.0,0.0,0.026,0.176,1.0,62.87,127.99,-27234.32,12050.88,4455.28,-765.22,-407.12,-897.56
2840,0.0,0.0,0.0,0.191,0.0,63.02,127.91,-27630.32,11678.88,4591.28,-165.22,-467.12,-346.56
2860,0.0,0.211,0.789,0.259,0.0,63.06,127.85,-27606.32,12194.88,4607.28,798.78,-678.12,187.44
2880,0.041,0.0,0.0,0.186,1.0,63.05,127.77,-27358.32,12406.88,4331.28,356.78,-613.12,183.44
2900,0.0,0.0,0.0,0.262,0.94,63.11,127.53,-27514.32,12182.88,4635.28,-343.22,-524.12,294.44
2920,0.041,0.0,0.0,0.162,1.0,63.24,127.15,-27562.32,12122.88,5083.28,-210.22,-386.12,330.44
2940,0.0,0.011,0.0,0.193,1.0,63.43,126.93,-27410.32,12186.88,4855.28,268.78,303.88,341.44
2960,0.217,0.0,0.0,0.158,0.685,63.62,126.7,-27710.32,12542.88,4775.28,484.78,601.88,85.44
2980,0.0,0.0,0.0,0.164,1.0,63.73,126.44,-27590.32,12486.88,4743.28,70.78,103.88,-75.56
