timestamp,flex_1,flex_2,flex_3,flex_4,flex_5,kalman_pitch,kalman_roll,acc_x,acc_y,acc_z,gyro_x,gyro_y,gyro_z
0,0.902,0.545,0.0,0.61,0.957,16.31,295.37,-2134.64,-5897.28,19828.0,9287.46,-6736.8,-13741.64
19,1.0,0.928,1.0,0.768,1.0,0.65,190.71,-1778.64,-6385.28,19640.0,7275.46,-5734.8,-12535.64
39,1.0,0.335,1.0,0.406,1.0,-7.08,135.36,-3078.64,-5085.28,20864.0,9020.46,-3288.8,-10779.64
59,1.0,0.51,0.0,1.0,0.0,-12.29,101.22,-3518.64,-3209.28,20564.0,8972.46,-3378.8,-9265.64
79,1.0,1.0,0.969,0.187,1.0,-17.78,77.91,-2106.64,-513.28,19024.0,5830.46,-5318.8,-9797.64
99,1.0,0.112,0.157,0.315,0.0,-21.1,58.83,-634.64,-4577.28,20244.0,455.46,-3963.8,-8960.64
119,1.0,0.942,0.0,1.0,1.0,-23.22,44.61,-582.64,-4465.28,20836.0,2941.46,-895.8,-7843.64
139,1.0,1.0,1.0,1.0,0.0,-24.35,34.55,-2754.64,-3085.28,22044.0,7226.46,-1082.8,-8204.64
159,0.574,0.991,1.0,0.723,0.977,-26.82,26.3,-2774.64,-845.28,20772.0,4428.46,-8980.8,-11097.64
179,0.66,0.593,0.297,0.0,0.0,-31.01,18.96,-1150.64,1850.72,19060.0,-2826.54,-16134.8,-10707.64
199,0.37,0.475,0.353,0.0,0.117,-34.04,10.94,-4358.64,-229.28,19012.0,-8948.54,-18958.8,-9201.64
219,0.263,0.384,0.913,1.0,1.0,-38.43,3.1,1517.36,-2581.28,17996.0,-7540.54,-23339.8,-10268.64
239,0.414,0.433,1.0,1.0,0.877,-42.5,-2.31,809.36,1650.72,16040.0,-1019.54,-17936.8,-7195.64
258,0.26,0.377,0.549,0.429,0.837,-45.5,-6.48,1337.36,3382.72,15828.0,-1135.54,-10377.8,-5460.64
279,0.678,1.0,0.0,0.089,0.0,-47.78,-10.85,1073.36,3406.72,15788.0,-5258.54,-7382.8,-4234.64
299,0.627,0.105,0.0,0.0,0.0,-49.7,-16.05,1021.36,1838.72,15360.0,-7790.54,-7286.8,-3454.64
319,0.275,0.349,1.0,0.0,0.657,-51.51,-21.26,1421.36,1574.72,14788.0,-8502.54,-7008.8,-1944.64
339,0.234,0.294,0.437,0.225,0.957,-53.04,-26.57,1933.36,646.72,13776.0,-7066.54,-5853.8,-349.64
359,0.216,0.05,0.185,0.172,0.617,-53.93,-31.45,2397.36,-53.28,13248.0,-4048.54,-2409.8,400.36
379,0.39,0.154,0.157,0.723,1.0,-54.3,-34.83,2145.36,926.72,13980.0,508.46,1414.2,1249.36
398,0.364,0.245,0.0,0.021,0.337,-54.36,-37.1,1773.36,1786.72,14196.0,4333.46,3863.2,2186.36
419,0.39,0.398,0.633,0.172,0.0,-54.19,-38.09,1653.36,3022.72,15480.0,5968.46,5326.2,2285.36
439,0.346,0.147,1.0,0.006,0.0,-54.18,-38.67,1693.36,4346.72,15604.0,4068.46,5156.2,1570.36
458,0.278,0.0,0.0,0.225,0.337,-54.51,-40.15,1693.36,3926.72,15212.0,-252.54,2990.2,442.36
479,0.343,0.963,0.381,0.693,0.0,-54.85,-42.42,1449.36,2406.72,15356.0,-2585.54,1284.2,367.36
499,0.319,0.196,0.0,0.0,0.657,-55.32,-44.68,1625.36,2074.72,15084.0,-1979.54,392.2,1036.36
518,0.287,0.029,1.0,0.406,1.0,-55.83,-46.53,1729.36,2614.72,14876.0,-873.54,605.2,1099.36
539,0.45,0.238,1.0,0.232,1.0,-56.33,-48.29,1997.36,2638.72,14752.0,-799.54,883.2,762.36
559,0.171,0.043,0.661,0.0,1.0,-56.77,-49.98,1941.36,2642.72,14660.0,-771.54,1164.2,469.36
578,0.678,0.817,0.213,0.0,1.0,-57.03,-51.27,1305.36,2986.72,15108.0,-661.54,1808.2,820.36
599,0.228,0.0,0.885,0.0,0.957,-57.29,-53.07,1601.36,1930.72,14880.0,-1754.54,1291.2,1137.36
619,0.592,0.175,0.0,0.489,1.0,-57.34,-55.18,1185.36,994.72,14660.0,-2377.54,1645.2,1117.36
639,0.322,0.503,0.0,0.044,0.177,-57.34,-57.16,861.36,398.72,14824.0,-1780.54,1185.2,1238.36
659,0.251,0.0,0.269,0.24,0.0,-57.4,-59.0,701.36,226.72,14796.0,-1220.54,520.2,1650.36
679,0.343,0.545,1.0,0.0,0.0,-57.46,-61.09,421.36,-181.28,14408.0,-2310.54,95.2,2412.36
699,0.521,0.098,0.0,0.006,0.897,-57.34,-63.59,1017.36,-1661.28,14604.0,-4675.54,277.2,3520.36
718,0.337,0.412,0.605,0.519,0.417,-57.13,-66.49,1073.36,-2917.28,14400.0,-6877.54,-52.8,4796.36
739,0.384,0.482,1.0,0.006,0.0,-56.74,-69.22,721.36,-3637.28,14980.0,-7299.54,118.2,6451.36
759,0.234,0.091,0.0,0.217,0.357,-56.36,-71.65,637.36,-4181.28,15820.0,-7271.54,-736.8,8177.36
779,0.234,0.259,0.0,0.217,0.397,-55.95,-74.12,1101.36,-5589.28,15468.0,-6984.54,-957.8,8815.36
799,0.284,0.217,0.0,0.655,1.0,-55.41,-76.57,1885.36,-7685.28,14940.0,-6079.54,-745.8,9916.36
819,0.37,0.412,0.157,0.489,0.197,-54.54,-78.56,1297.36,-9105.28,16112.0,-4708.54,110.2,12212.36
839,0.26,0.67,1.0,0.247,0.637,-53.77,-80.36,2245.36,-8869.28,16272.0,-4465.54,365.2,15526.36
859,0.308,0.252,0.941,0.527,1.0,-52.94,-82.43,2549.36,-9913.28,15632.0,-6044.54,746.2,18740.36
879,0.225,0.0,0.073,0.459,0.0,-51.79,-84.69,3593.36,-12633.28,16560.0,-8176.54,2336.2,21777.36
899,0.222,0.0,0.801,0.994,0.0,-50.29,-86.89,2957.36,-14373.28,17072.0,-8767.54,3724.2,24566.36
919,0.604,0.022,1.0,0.142,0.0,-48.8,-89.0,3457.36,-14733.28,16540.0,-8461.54,4395.2,27108.36
939,0.263,0.0,0.437,0.0,1.0,-47.23,-91.11,2481.36,-15041.28,16644.0,-9421.54,4617.2,30344.36
958,0.228,0.552,0.465,0.278,1.0,-45.85,-93.42,1229.36,-17053.28,17404.0,-11918.54,2174.2,32484.36
979,0.0,0.098,0.0,0.225,1.0,-44.63,-95.79,1793.36,-18729.28,16196.0,-11969.54,1351.2,32806.36
999,0.248,0.51,0.353,0.338,0.0,-43.07,-98.15,1025.36,-19789.28,13372.0,-10621.54,3317.2,32806.36
1019,0.331,0.705,1.0,0.0,1.0,-41.0,-100.28,-1354.64,-20777.28,14500.0,-10796.54,5539.2,32806.36
1040,0.426,0.496,0.0,0.474,0.0,-38.68,-102.29,-3606.64,-22557.28,14920.0,-11016.54,5985.2,32806.36
1060,0.382,0.363,1.0,0.0,0.977,-36.15,-104.22,-1734.64,-24533.28,13780.0,-10429.54,8923.2,32806.36
1080,0.47,0.21,0.0,0.685,0.0,-32.63,-105.44,-3610.64,-20281.28,15332.0,-7965.54,16366.2,32806.36
1100,0.361,0.482,0.0,0.3,0.977,-28.65,-106.96,-8678.64,-15565.28,15852.0,-12048.54,17751.2,32806.36
1120,0.281,0.433,0.0,0.232,0.117,-25.07,-109.37,-10206.64,-13253.28,15380.0,-19136.54,15365.2,32806.36
1140,0.236,0.349,0.0,0.346,0.397,-22.37,-111.16,-8630.64,-8157.28,13988.0,-16027.54,13542.2,32806.36
1160,0.186,0.0,0.0,0.0,1.0,-19.69,-112.28,-8454.64,-6605.28,13136.0,-11629.54,15303.2,32806.36
1180,0.219,0.0,0.0,0.73,0.137,-16.77,-112.16,-10262.64,-2033.28,15248.0,-9971.54,16968.2,32806.36
1199,0.254,0.705,0.0,0.489,0.0,-13.77,-110.39,-11298.64,1114.72,15452.0,-3504.54,17862.2,32806.36
1219,0.192,0.0,1.0,0.119,0.0,-12.17,-108.53,-10114.64,4134.72,12736.0,-2524.54,18098.2,32806.36
1239,0.284,0.0,0.0,0.187,0.0,-11.17,-109.45,-9854.64,3002.72,10068.0,-6711.54,15461.2,32806.36
1259,0.213,0.0,0.773,0.127,0.0,-11.58,-109.6,-9874.64,4870.72,10688.0,-7606.54,11685.2,32806.36
1279,0.473,0.21,0.157,0.0,0.977,-11.25,-100.84,-10922.64,10202.72,11032.0,847.46,11273.2,32806.36
1298,0.192,0.308,1.0,0.104,0.0,-10.97,-90.59,-11222.64,12834.72,8688.0,764.46,4643.2,31887.36
1319,0.296,0.0,0.437,0.0,0.517,-11.02,-80.32,-10810.64,14738.72,5968.0,-2358.54,989.2,25758.36
1339,0.254,0.9,0.0,0.18,0.157,-9.81,-69.45,-14450.64,13362.72,3932.0,-1967.54,845.2,17282.36
1359,0.201,0.294,0.0,0.255,0.257,-7.71,-59.39,-18654.64,15662.72,4872.0,138.46,-609.8,12221.36
1379,0.287,0.0,0.0,0.0,0.097,-5.87,-49.65,-20894.64,17418.72,5436.0,3142.46,-4048.8,8362.36
1399,0.257,0.356,0.941,0.006,1.0,-3.9,-39.96,-23286.64,16210.72,4284.0,2164.46,-6014.8,3739.36
1419,0.361,0.342,1.0,0.112,0.517,-1.59,-30.98,-25210.64,15002.72,4732.0,-797.54,-6498.8,191.36
1439,0.624,0.182,0.0,0.0,1.0,1.09,-22.19,-27290.64,13702.72,4948.0,-1271.54,-6361.8,-616.64
1459,0.269,0.0,0.0,0.0,0.857,4.0,-13.8,-28774.64,13782.72,5376.0,-775.54,-5234.8,-302.64
1479,0.5,0.321,0.0,0.481,0.837,7.32,-5.96,-32666.64,14214.72,6440.0,644.46,-3677.8,-1710.64
1499,0.236,0.405,1.0,0.089,0.0,10.91,0.05,-26158.64,10902.72,8748.0,-6761.54,-2959.8,1148.36
1519,0.272,0.21,1.0,0.0,0.0,14.05,7.05,-28134.64,11918.72,6088.0,-6289.54,-3088.8,-1542.64
1538,0.183,0.342,0.101,0.0,1.0,17.71,15.3,-28918.64,11222.72,5960.0,2050.46,466.2,-2114.64
1559,0.239,0.356,1.0,0.0,0.257,21.53,23.9,-29314.64,11218.72,5984.0,6836.46,2329.2,-1227.64
1578,0.432,0.321,1.0,0.0,0.977,24.87,32.05,-28302.64,11894.72,5732.0,7067.46,1282.2,-1066.64
1598,0.47,0.328,1.0,0.149,0.0,27.77,39.5,-27354.64,12114.72,5900.0,5458.46,-204.8,-1727.64
1618,0.405,0.0,0.0,0.059,0.0,30.28,46.39,-25818.64,12150.72,5764.0,3493.46,-986.8,-2743.64
1638,0.316,0.161,1.0,0.557,0.0,33.01,52.9,-25670.64,10858.72,6996.0,3208.46,-1174.8,-2375.64
1659,0.299,0.0,0.913,0.828,0.757,35.81,57.94,-26110.64,10866.72,9300.0,5511.46,-1601.8,-1303.64
1679,0.231,0.133,1.0,0.0,0.157,38.15,62.2,-25594.64,11670.72,10640.0,8529.46,-2592.8,-1486.64
1699,0.467,0.077,0.0,0.293,1.0,40.22,66.38,-24274.64,11470.72,10768.0,10177.46,-3326.8,-3276.64
1719,0.201,0.036,1.0,0.255,0.0,42.17,69.63,-24922.64,11198.72,11696.0,9728.46,-3864.8,-4130.64
1739,0.296,0.412,0.0,0.474,0.0,44.29,72.64,-25638.64,11386.72,12756.0,12939.46,-1579.8,-5252.64
1759,0.358,0.182,0.0,0.225,0.017,46.73,75.68,-26846.64,10618.72,12728.0,16278.46,-262.8,-6197.64
1779,0.361,0.056,0.0,1.0,1.0,49.48,79.06,-28926.64,10190.72,12096.0,18688.46,888.2,-7117.64
1799,0.376,0.252,1.0,0.444,0.0,52.76,84.09,-29214.64,9262.72,10088.0,20093.46,3173.2,-8582.64
1819,0.26,0.0,0.0,0.813,1.0,56.42,93.24,-30246.64,7674.72,7824.0,20345.46,6917.2,-10127.64
1839,0.201,0.182,0.633,1.0,0.277,60.11,85.77,-31470.64,5226.72,5940.0,21530.46,10553.2,-10401.64
1859,0.376,1.0,0.0,0.677,0.0,63.74,78.36,-34578.64,4022.72,2384.0,22168.46,13898.2,-9620.64
1879,0.361,0.489,0.0,0.368,0.177,67.22,71.19,-34214.64,2974.72,-324.0,22857.46,16534.2,-7173.64
1899,0.461,0.28,0.0,0.61,1.0,70.28,64.29,-34682.64,1866.72,-3676.0,23935.46,17117.2,-3275.64
1919,0.387,0.879,1.0,0.0,0.317,72.45,57.66,-33862.64,110.72,-7524.0,24492.46,14994.2,766.36
1939,0.686,0.294,0.0,0.64,0.0,74.18,50.9,-33062.64,-1029.28,-10428.0,22677.46,14715.2,1772.36
1959,0.473,0.475,0.0,0.632,0.397,75.26,43.44,-31782.64,-2593.28,-13944.0,16563.46,13293.2,786.36
1979,0.781,0.447,1.0,0.323,0.517,75.05,34.82,-30330.64,-3429.28,-18980.0,7921.46,7307.2,2135.36
1999,0.944,0.098,0.0,0.519,0.197,74.05,25.92,-28306.64,-4469.28,-21248.0,4042.46,3661.2,2600.36
2018,1.0,0.419,0.0,0.851,0.977,72.46,16.22,-24794.64,-5885.28,-22788.0,-3880.54,1682.2,-625.64
2038,1.0,0.07,0.0,0.481,0.0,69.97,4.95,-23386.64,-6857.28,-22852.0,-17500.54,-3999.8,-3769.64
2060,0.926,0.105,0.353,0.0,0.417,66.18,-7.52,-20194.64,-6525.28,-22852.0,-28569.54,-11805.8,-2579.64
2080,0.58,0.154,0.0,0.353,0.717,61.18,-19.96,-18346.64,-6489.28,-20464.0,-32294.54,-20313.8,-984.64
2100,0.692,0.21,0.0,0.391,0.697,55.0,-31.76,-16298.64,-6841.28,-17844.0,-32294.54,-28815.8,1564.36
2120,0.538,0.161,1.0,0.119,0.0,48.0,-42.73,-11686.64,-8001.28,-12792.0,-32294.54,-33229.8,2065.36
2139,0.612,0.036,0.381,1.0,0.0,41.15,-52.3,-12086.64,-6749.28,-676.0,-32294.54,-34043.8,557.36
2159,0.689,0.015,0.717,1.0,0.337,33.55,-61.98,-4658.64,-5205.28,-3680.0,-32294.54,-34043.8,-1152.64
2179,0.248,0.0,0.381,0.074,0.597,25.67,-69.09,1009.36,-11313.28,8596.0,-32294.54,-34043.8,-1480.64
2199,0.266,0.182,0.689,0.323,0.537,18.47,-74.82,1105.36,-15921.28,17084.0,-32294.54,-34043.8,2507.36
2219,0.66,0.029,1.0,0.0,0.177,11.15,-78.48,6157.36,-13245.28,21604.0,-24224.54,-34043.8,8078.36
2238,0.091,0.37,0.0,0.293,0.977,6.89,-78.08,-3602.64,-2361.28,32188.0,-10145.54,-21147.8,11621.36
2259,0.562,0.308,0.0,0.225,0.637,4.75,-76.96,-798.64,-2637.28,38356.0,-6869.54,-7535.8,13132.36
2279,0.968,0.0,1.0,0.0,1.0,5.46,-77.05,-1286.64,-5097.28,42683.0,-14575.54,10248.2,9414.36
2299,1.0,0.503,1.0,1.0,0.037,8.99,-76.67,-18550.64,5502.72,42683.0,-17741.54,20616.2,5810.36
2319,0.926,0.851,0.0,1.0,0.757,14.5,-73.1,-37582.64,15510.72,42683.0,-1899.54,26379.2,6987.36
2339,0.823,1.0,0.409,0.987,0.237,17.69,-70.42,-21530.64,9410.72,38528.0,-3936.54,18827.2,1588.36
2359,0.894,1.0,0.0,1.0,1.0,23.69,-66.43,-36054.64,15546.72,25136.0,-2726.54,26878.2,-2848.64
2379,0.971,1.0,1.0,0.466,0.597,29.97,-62.42,-40530.64,16330.72,23968.0,-3175.54,28625.2,-4382.64
2399,0.944,0.824,0.0,0.466,0.277,37.1,-56.48,-40178.64,10734.72,12996.0,5709.46,29081.2,-1744.64
2418,1.0,0.817,0.0,1.0,1.0,42.81,-45.56,-40546.64,12814.72,6008.0,15284.46,22919.2,1398.36
2438,1.0,1.0,1.0,0.708,0.0,47.18,-33.46,-35666.64,11894.72,548.0,16467.46,19118.2,2562.36
2458,0.982,0.593,1.0,0.61,1.0,50.94,-21.22,-35950.64,8958.72,-2072.0,14230.46,17388.2,3500.36
2478,1.0,0.963,0.913,0.64,0.657,53.64,-9.94,-31986.64,8070.72,-3740.0,9064.46,14010.2,6962.36
2498,1.0,0.824,0.0,0.828,1.0,55.49,0.68,-30294.64,9838.72,-4072.0,9540.46,10310.2,9950.36
2519,1.0,0.831,0.773,1.0,0.337,56.58,10.48,-27418.64,10070.72,-3316.0,7067.46,7055.2,11650.36
2539,1.0,1.0,0.0,0.753,0.0,57.12,20.01,-25922.64,8970.72,-2904.0,6033.46,4403.2,10900.36
2559,1.0,1.0,0.857,1.0,1.0,57.65,29.84,-26326.64,10046.72,-1472.0,12470.46,3273.2,7861.36
2579,1.0,0.991,0.0,0.768,1.0,57.5,39.38,-24358.64,10714.72,-1392.0,14072.46,491.2,6369.36
2599,1.0,0.628,0.0,0.149,1.0,57.31,47.83,-24238.64,11838.72,-632.0,11250.46,113.2,6059.36
2619,1.0,0.747,0.0,0.0,0.997,57.31,55.0,-24946.64,11822.72,408.0,5311.46,15.2,3960.36
2639,1.0,1.0,0.0,0.391,0.0,57.54,61.23,-26694.64,11862.72,1912.0,2112.46,-898.8,3369.36
2659,0.873,0.726,0.857,1.0,1.0,57.42,67.01,-26258.64,11986.72,2244.0,1140.46,-3193.8,1803.36
2679,1.0,1.0,0.0,0.0,1.0,57.29,72.55,-25350.64,11194.72,2392.0,-412.54,-3156.8,624.36
2699,0.988,1.0,0.0,0.444,1.0,57.83,77.61,-27818.64,10962.72,3952.0,-996.54,-1678.8,772.36
2719,1.0,0.398,1.0,0.979,1.0,58.28,82.6,-27806.64,10694.72,4164.0,-470.54,-2542.8,987.36
2739,0.923,1.0,0.0,0.587,0.0,58.78,87.3,-28058.64,10958.72,4628.0,152.46,-2502.8,14.36
2759,1.0,1.0,0.0,0.7,1.0,59.36,92.05,-28142.64,10018.72,4816.0,-464.54,-2572.8,-874.64
2779,0.876,1.0,1.0,1.0,0.0,59.95,97.21,-28122.64,9162.72,4860.0,927.46,-2822.8,171.36
2799,1.0,1.0,1.0,0.617,0.0,60.6,101.82,-28622.64,10306.72,5164.0,2565.46,-2190.8,1449.36
2819,0.971,1.0,1.0,1.0,1.0,61.19,105.98,-28518.64,10766.72,4792.0,1303.46,-1811.8,844.36
2839,1.0,1.0,1.0,0.723,0.917,61.84,109.47,-28738.64,10898.72,4876.0,-1605.54,-1265.8,-713.64
2858,1.0,1.0,0.0,0.0,0.0,62.53,113.3,-28266.64,9458.72,4812.0,-2619.54,-1364.8,-1043.64
2879,0.959,0.705,0.437,0.753,0.237,63.16,117.24,-28410.64,10242.72,4612.0,1253.46,-1044.8,315.36
2899,0.947,1.0,0.381,0.481,0.097,63.91,120.41,-28578.64,10702.72,4920.0,-1186.54,-169.8,630.36
2919,0.929,0.844,0.941,0.0,0.357,64.7,123.43,-28574.64,11058.72,4852.0,-534.54,656.2,-868.64
2939,0.657,0.649,0.0,0.466,0.337,65.51,126.24,-29010.64,10578.72,4960.0,-2086.54,445.2,-1611.64
2961,0.858,1.0,0.297,0.481,0.0,66.17,129.04,-28482.64,10058.72,5040.0,-2730.54,-512.8,-1877.64
2979,0.979,1.0,0.0,0.979,0.417,66.95,132.13,-28006.64,9518.72,5260.0,-1239.54,178.2,-1004.64
