timestamp,flex_1,flex_2,flex_3,flex_4,flex_5,kalman_pitch,kalman_roll,acc_x,acc_y,acc_z,gyro_x,gyro_y,gyro_z
0,0.0,0.211,0.145,0.023,0.11,6.15,37.5,-723.44,-2283.44,15445.52,469.38,-445.1,36.58
19,0.0,0.138,0.0,0.073,0.177,-8.88,8.19,-155.44,-1703.44,14933.52,666.38,-941.1,206.58
40,0.0,0.146,0.0,0.0,0.684,-15.95,-4.93,312.56,-1703.44,15177.52,179.38,-155.1,615.58
60,0.0,0.357,0.183,0.0,0.684,-19.63,-12.52,-83.44,-1847.44,15401.52,-179.62,269.9,-90.42
79,0.0,0.154,0.0,0.594,0.0,-21.91,-17.53,-403.44,-1855.44,15413.52,-147.62,59.9,-459.42
100,0.0,0.146,0.0,0.11,0.245,-23.81,-21.22,-223.44,-1823.44,15133.52,-114.62,-626.1,-704.42
121,0.0,0.146,0.07,0.11,0.684,-25.56,-24.13,248.56,-1879.44,14921.52,-39.62,-1044.1,-718.42
140,0.0,0.187,0.674,0.0,0.211,-27.07,-26.39,784.56,-2019.44,15041.52,503.38,-733.1,-190.42
160,0.0,0.154,0.0,0.011,0.684,-28.04,-28.26,188.56,-2599.44,15409.52,1146.38,-1018.1,-267.42
179,0.0,0.146,0.0,0.0,0.11,-28.98,-29.62,-227.44,-2347.44,16089.52,839.38,-3145.1,-733.42
199,0.0,0.146,0.0,0.073,0.008,-30.25,-30.87,-271.44,-1819.44,15961.52,-620.62,-5829.1,-2096.42
220,0.0,0.179,0.145,0.011,0.684,-31.84,-32.15,424.56,-971.44,15721.52,-3279.62,-6806.1,-2568.42
241,0.0,0.146,0.0,0.718,0.279,-33.11,-33.52,1484.56,-1219.44,16125.52,-4860.62,-4378.1,-2544.42
260,0.0,0.195,0.409,0.197,0.684,-33.97,-35.16,2472.56,-2951.44,16657.52,-5138.62,-2225.1,-1508.42
280,0.0,0.203,0.0,0.0,0.11,-34.13,-36.92,3412.56,-5251.44,16261.52,-3132.62,2297.9,-722.42
300,0.0,0.187,0.0,0.0,0.177,-33.5,-37.83,1476.56,-4983.44,17929.52,-431.62,4516.9,1363.58
319,0.0,0.195,0.0,0.0,0.0,-32.72,-38.33,1160.56,-3907.44,18549.52,-59.62,5733.9,4846.58
340,0.0,0.349,0.0,0.0,0.11,-31.47,-39.11,432.56,-3747.44,18621.52,-2478.62,8567.9,7527.58
360,1.0,0.349,1.0,1.0,0.684,-29.66,-40.54,-407.44,-6203.44,19505.52,-5460.62,10856.9,7866.58
379,1.0,0.276,0.0,1.0,0.144,-27.38,-42.11,-1103.44,-8987.44,18653.52,-3634.62,13708.9,9038.58
400,1.0,0.316,0.0,0.507,0.245,-24.65,-42.82,-2307.44,-10355.44,18497.52,2861.38,16169.9,10161.58
421,1.0,0.292,0.0,0.768,0.211,-21.69,-41.69,-1903.44,-6063.44,20781.52,9748.38,19992.9,13501.58
441,1.0,0.357,0.0,0.507,0.211,-18.34,-40.1,-4075.44,-4019.44,22809.52,10053.38,21354.9,16083.58
460,1.0,0.284,0.0,0.172,0.177,-14.89,-39.03,-4875.44,-4099.44,21197.52,8184.38,22869.9,16606.58
481,0.812,0.316,0.0,1.0,0.684,-11.23,-38.33,-4231.44,-6599.44,21773.52,8082.38,26255.9,18063.58
500,0.0,0.179,0.0,1.0,0.144,-6.69,-36.97,-8279.44,-5355.44,22633.52,11241.38,29407.9,18837.58
520,0.0,0.26,0.0,0.693,0.684,-1.76,-35.7,-12387.44,-5635.44,23177.52,11152.38,29543.9,18601.58
540,0.0,0.252,0.0,0.693,0.0,2.78,-34.74,-13107.44,-5635.44,22241.52,10073.38,27891.9,18159.58
559,0.0,0.308,0.0,0.942,0.819,6.86,-34.0,-12863.44,-6711.44,20873.52,10869.38,26814.9,19368.58
580,0.0,0.308,0.0,0.793,0.684,10.98,-32.95,-13499.44,-6939.44,20385.52,13986.38,28041.9,20742.58
600,0.0,0.292,0.0,1.0,0.785,15.0,-31.12,-16367.44,-6839.44,20869.52,19519.38,26113.9,24212.58
620,0.0,0.292,0.0,1.0,0.819,18.89,-28.6,-16451.44,-1255.44,20649.52,19503.38,25431.9,24966.58
641,0.0,0.284,0.825,1.0,0.752,22.49,-27.14,-17339.44,-2647.44,19153.52,15805.38,23731.9,26182.58
660,0.0,0.268,0.0,1.0,0.752,25.88,-25.52,-18199.44,-2087.44,19037.52,17012.38,22567.9,27746.58
679,0.0,0.276,0.0,0.718,0.008,29.13,-23.58,-17255.44,-395.44,18181.52,18395.38,23185.9,27979.58
700,0.0,0.243,0.07,0.991,0.853,32.65,-21.57,-17939.44,1352.56,17237.52,17848.38,24446.9,26545.58
721,0.0,0.179,0.0,1.0,0.718,36.57,-19.63,-18863.44,1860.56,16085.52,18074.38,26544.9,24363.58
740,0.0,0.235,0.0,1.0,0.954,40.12,-16.89,-17271.44,4364.56,15089.52,20283.38,25941.9,23915.58
760,0.0,0.235,0.0,1.0,0.887,43.96,-13.4,-19931.44,7856.56,14161.52,18602.38,24961.9,22472.58
780,0.0,0.227,0.0,1.0,1.0,47.41,-10.04,-18207.44,8832.56,12429.52,15595.38,23845.9,19737.58
800,0.0,0.154,0.0,1.0,0.684,50.72,-6.59,-16615.44,10108.56,10597.52,11636.38,24581.9,17005.58
820,0.0,0.122,0.0,1.0,0.752,54.59,-2.92,-16627.44,10356.56,8817.52,9894.38,27476.9,14948.58
840,0.0,0.122,0.598,0.842,0.684,58.38,1.51,-17851.44,11784.56,7793.52,9338.38,27520.9,13092.58
860,0.0,0.146,0.0,1.0,0.684,61.43,6.96,-17639.44,13156.56,5881.52,8984.38,25085.9,12208.58
880,0.0,0.0,0.0,1.0,0.853,63.8,13.29,-16447.44,13328.56,3713.52,8697.38,23383.9,10817.58
901,0.0,0.0,0.221,0.445,1.0,65.92,19.46,-17635.44,14516.56,2809.52,7011.38,23231.9,7781.58
920,0.0,0.122,0.0,0.979,0.752,67.48,25.45,-18555.44,15024.56,1773.52,4996.38,20213.9,5038.58
940,0.0,0.017,0.0,0.979,0.0,67.93,31.22,-18371.44,16968.56,189.52,3080.38,16442.9,2888.58
960,0.0,0.106,0.0,1.0,0.684,68.1,36.97,-18135.44,15276.56,-626.48,1291.38,13904.9,1078.58
980,0.0,0.122,0.0,0.991,0.684,67.77,42.57,-17523.44,16052.56,-1414.48,1127.38,12751.9,420.58
1001,0.0,0.0,0.0,1.0,0.0,67.32,48.03,-18115.44,15948.56,-1646.48,1283.38,11276.9,118.58
1020,0.0,0.114,0.0,0.979,0.684,66.86,53.41,-19399.44,15756.56,-1478.48,2466.38,9434.9,-526.42
1041,0.0,0.09,0.0,0.991,0.785,65.71,58.43,-18823.44,17316.56,-1910.48,2514.38,6932.9,-1366.42
1061,0.0,0.324,0.0,1.0,1.0,64.58,62.79,-19943.44,17312.56,-1602.48,-71.62,5350.9,-2613.42
1081,0.0,0.065,0.711,0.979,0.684,63.22,67.19,-19267.44,15532.56,-1518.48,-227.62,2623.9,-3402.42
1100,0.0,0.09,0.0,0.966,1.0,61.66,71.73,-18631.44,15504.56,-1750.48,1681.38,1704.9,-2948.42
1120,0.0,0.057,0.0,0.979,0.954,59.94,76.28,-18887.44,16128.56,-1778.48,3864.38,278.9,-3243.42
1140,0.0,0.081,0.0,1.0,0.718,57.94,80.04,-19519.44,16972.56,-1490.48,1293.38,-2293.1,-4500.42
1161,0.0,0.146,0.0,1.0,0.0,55.69,83.24,-19455.44,15440.56,-774.48,-1698.62,-6454.1,-5929.42
1181,0.0,0.065,0.0,1.0,0.684,53.05,86.84,-16779.44,13448.56,-758.48,-662.62,-8798.1,-5568.42
1200,0.0,0.049,0.0,1.0,0.684,50.78,89.68,-16703.44,14568.56,1185.52,1469.38,-7037.1,-3370.42
1220,0.0,0.033,0.0,1.0,0.11,49.09,91.28,-18863.44,13812.56,4069.52,1797.38,-8516.1,-967.42
1240,0.0,0.057,0.0,1.0,0.684,47.26,92.46,-19407.44,13864.56,5349.52,3649.38,-10580.1,418.58
1261,0.0,0.073,0.0,1.0,1.0,45.31,93.23,-18643.44,14128.56,5977.52,3079.38,-10785.1,157.58
1281,0.0,0.081,0.0,1.0,0.684,43.58,93.28,-19283.44,14160.56,7409.52,2345.38,-10183.1,-770.42
1299,0.0,0.033,0.0,1.0,0.684,41.78,93.1,-19187.44,15192.56,8333.52,2084.38,-9569.1,-410.42
1321,0.0,0.0,0.0,1.0,0.684,40.23,92.75,-19103.44,14956.56,8081.52,669.38,-8892.1,504.58
1341,0.0,0.057,0.145,1.0,0.718,39.05,92.38,-19587.44,15436.56,7701.52,-706.62,-7101.1,708.58
1360,0.0,0.017,0.0,1.0,1.0,38.37,92.09,-19127.44,14248.56,7037.52,-587.62,-5438.1,762.58
1380,0.0,0.0,0.0,1.0,0.245,37.86,91.69,-20951.44,15716.56,8081.52,-324.62,-4258.1,517.58
1399,0.0,0.009,0.0,1.0,0.684,37.38,91.37,-21651.44,15708.56,7465.52,-988.62,-5161.1,142.58
1420,0.0,0.009,0.0,1.0,1.0,36.92,91.38,-20519.44,15788.56,6453.52,-1087.62,-4520.1,-362.42
1440,0.0,0.049,0.0,1.0,0.684,36.84,91.42,-21215.44,15836.56,6181.52,-1346.62,-2825.1,-559.42
1461,0.0,0.0,0.0,1.0,0.144,37.12,91.71,-21479.44,15236.56,5717.52,-379.62,-1488.1,-160.42
1480,0.0,0.0,0.0,1.0,0.144,37.34,91.98,-22415.44,16508.56,6181.52,154.38,-1141.1,92.58
1500,0.0,0.0,0.0,1.0,0.684,37.6,92.36,-21991.44,15732.56,5389.52,-358.62,-1576.1,2.58
1520,0.0,0.462,0.0,1.0,0.684,37.98,92.51,-22771.44,16280.56,5633.52,-1372.62,-674.1,-620.42
1541,0.0,0.154,0.0,1.0,0.684,38.46,92.79,-22519.44,15000.56,4985.52,-1490.62,-1209.1,-354.42
1560,0.0,0.0,0.0,1.0,0.177,39.12,93.12,-22579.44,15328.56,5237.52,-487.62,436.9,-261.42
1581,0.0,0.057,0.0,1.0,0.819,39.76,93.4,-23339.44,15344.56,5413.52,-225.62,-105.1,480.58
1600,0.0,0.106,0.0,1.0,0.752,40.37,93.91,-22595.44,15180.56,4953.52,465.38,104.9,859.58
1620,0.0,0.0,0.0,1.0,0.684,41.04,94.25,-23023.44,15264.56,4937.52,-484.62,486.9,485.58
1640,0.0,0.187,0.0,1.0,0.684,41.65,94.79,-22791.44,15132.56,4329.52,-468.62,153.9,514.58
1660,0.0,0.057,0.0,1.0,1.0,42.28,95.26,-22659.44,15328.56,4501.52,-280.62,728.9,454.58
1681,0.0,0.017,0.183,1.0,0.684,42.85,95.62,-22875.44,15260.56,4665.52,-474.62,226.9,455.58
1700,0.0,0.365,0.0,1.0,0.684,43.37,96.07,-22523.44,15084.56,4265.52,-609.62,19.9,372.58
1720,0.0,0.025,0.0,0.942,0.684,43.93,96.36,-22431.44,15004.56,4557.52,-778.62,319.9,145.58
1741,0.0,0.0,0.0,1.0,0.684,44.51,96.65,-22271.44,14752.56,4461.52,-786.62,470.9,-102.42
1760,0.0,0.081,0.183,1.0,1.0,45.1,96.88,-22659.44,14688.56,4721.52,-464.62,360.9,-58.42
1781,0.0,0.041,0.0,1.0,0.752,45.59,97.17,-22471.44,14824.56,4401.52,-660.62,37.9,59.58
1799,0.0,0.033,0.07,1.0,0.887,46.09,97.32,-22575.44,14572.56,4549.52,-1088.62,-160.1,80.58
1820,0.0,0.065,0.0,1.0,0.718,46.52,97.51,-22383.44,14768.56,4517.52,-835.62,-206.1,196.58
1840,0.0,0.0,0.0,1.0,0.245,46.94,97.76,-22267.44,14760.56,4313.52,-792.62,-167.1,334.58
1861,0.0,0.0,0.145,1.0,0.177,47.36,97.94,-22519.44,15116.56,4509.52,-683.62,173.9,146.58
1880,0.0,0.057,0.0,1.0,0.684,47.68,98.07,-22715.44,15184.56,4625.52,-651.62,-459.1,131.58
1899,0.0,0.065,0.0,1.0,1.0,47.95,98.27,-22339.44,15196.56,4637.52,-31.62,-523.1,14.58
1920,0.0,0.025,0.0,1.0,0.684,48.19,98.27,-22555.44,15336.56,5009.52,-345.62,-621.1,9.58
1940,0.0,0.0,0.0,1.0,0.076,48.49,98.33,-22187.44,15180.56,4833.52,-293.62,-130.1,-219.42
1960,0.0,0.0,0.108,1.0,0.11,48.81,98.22,-22651.44,15220.56,5237.52,-441.62,-157.1,-200.42
1980,0.0,0.033,1.0,1.0,0.684,49.06,98.22,-22495.44,15100.56,5077.52,-1.62,-651.1,45.58
2000,0.0,0.017,0.0,1.0,0.684,49.35,98.13,-22315.44,15128.56,5297.52,36.38,-139.1,-63.42
2020,0.0,0.033,0.0,1.0,0.144,49.65,97.98,-22443.44,15380.56,5453.52,-65.62,153.9,-180.42
2040,0.0,0.057,0.0,1.0,0.684,49.94,97.83,-22623.44,15324.56,5617.52,333.38,-11.1,-59.42
2060,0.0,0.033,0.0,1.0,0.684,50.16,97.72,-22515.44,15420.56,5401.52,206.38,-313.1,-150.42
2080,0.0,0.073,0.0,1.0,1.0,50.38,97.71,-21951.44,15128.56,5037.52,99.38,-228.1,-260.42
2101,0.0,0.0,0.07,1.0,0.684,50.7,97.65,-22127.44,14996.56,5137.52,134.38,296.9,-125.42
2121,0.0,0.049,0.0,1.0,0.718,51.04,97.63,-22523.44,15164.56,5225.52,687.38,373.9,76.58
2139,0.0,0.187,0.0,1.0,0.752,51.32,97.62,-22683.44,15116.56,5161.52,617.38,-103.1,94.58
2160,0.0,0.025,0.0,1.0,0.684,51.51,97.58,-22655.44,15272.56,5009.52,172.38,-502.1,-145.42
2180,0.0,0.033,0.0,1.0,1.0,51.67,97.57,-22111.44,15224.56,4669.52,-369.62,-446.1,-460.42
2201,0.0,0.033,0.0,1.0,0.211,51.98,97.56,-22279.44,14696.56,4585.52,-521.62,-39.1,-522.42
2221,0.0,0.057,0.711,1.0,0.0,52.24,97.56,-22263.44,14784.56,4705.52,11.38,-190.1,-205.42
2239,0.0,0.114,0.0,0.904,0.684,52.46,97.58,-22247.44,14932.56,4821.52,368.38,-290.1,135.58
2260,0.0,0.0,0.0,1.0,0.684,52.64,97.6,-22303.44,15128.56,4729.52,220.38,-292.1,119.58
2280,0.0,0.033,1.0,1.0,0.211,52.83,97.48,-22299.44,15068.56,4889.52,-281.62,-283.1,-54.42
2300,0.0,0.057,0.0,0.805,0.752,52.95,97.26,-22259.44,15220.56,5025.52,-637.62,-528.1,-170.42
2320,0.0,0.033,0.0,1.0,0.076,53.13,97.03,-22419.44,14780.56,5093.52,-451.62,-682.1,-128.42
2340,0.0,0.033,0.0,1.0,0.684,53.31,96.93,-22071.44,14796.56,4861.52,-109.62,-379.1,-287.42
2361,0.0,0.057,0.0,1.0,0.684,53.53,96.73,-22395.44,15184.56,5065.52,-368.62,116.9,-220.42
2379,0.0,0.025,0.0,1.0,0.684,53.84,96.54,-22251.44,14600.56,5213.52,145.38,218.9,-167.42
2400,0.0,0.0,0.0,1.0,0.211,54.07,96.3,-22623.44,15108.56,5217.52,-255.62,112.9,-159.42
2420,0.0,0.073,0.0,1.0,1.0,54.28,96.06,-22251.44,14520.56,5133.52,-309.62,-367.1,195.58
2440,0.0,0.114,0.0,1.0,1.0,54.53,95.87,-22327.44,14920.56,5217.52,84.38,281.9,318.58
2460,0.0,0.0,0.0,1.0,0.0,54.7,95.67,-22611.44,15232.56,5109.52,-254.62,-12.1,402.58
2480,0.0,0.025,0.0,1.0,0.684,54.86,95.57,-22211.44,15052.56,4793.52,-287.62,-105.1,339.58
2500,0.0,0.187,0.0,1.0,0.684,54.98,95.38,-22439.44,15344.56,5085.52,-227.62,-106.1,212.58
2520,0.0,0.025,0.183,1.0,0.684,55.11,95.22,-22259.44,15112.56,5101.52,17.38,-91.1,210.58
2540,0.0,0.017,0.108,0.358,0.684,55.29,95.08,-22319.44,15164.56,5089.52,135.38,261.9,148.58
2560,0.0,0.0,0.0,1.0,1.0,55.46,94.9,-22523.44,15308.56,5105.52,-124.62,214.9,10.58
2580,0.0,0.081,0.0,1.0,0.684,55.57,94.69,-22495.44,15236.56,5125.52,-220.62,-203.1,49.58
2600,0.0,0.09,0.0,1.0,0.0,55.68,94.54,-22295.44,14952.56,5097.52,122.38,-279.1,72.58
2620,0.0,0.0,0.0,1.0,0.684,55.76,94.37,-22451.44,15132.56,5189.52,193.38,-402.1,113.58
2639,0.0,0.049,0.0,0.52,0.684,55.82,94.22,-22387.44,15036.56,5053.52,73.38,-657.1,38.58
2660,0.0,0.025,0.0,1.0,0.684,55.87,94.0,-22343.44,15108.56,5089.52,-342.62,-509.1,-245.42
2679,0.0,0.316,0.0,1.0,0.684,55.94,93.78,-22307.44,14908.56,5085.52,-370.62,-666.1,-189.42
2699,0.0,0.049,0.56,1.0,0.684,56.01,93.54,-22159.44,14900.56,5349.52,152.38,-470.1,79.58
2720,0.0,0.081,0.0,1.0,0.718,56.14,93.35,-22263.44,14900.56,5253.52,226.38,-157.1,107.58
2740,0.0,0.106,0.0,1.0,0.684,56.3,93.04,-22391.44,14904.56,5461.52,-82.62,57.9,-69.42
2761,0.0,0.033,0.0,1.0,0.11,56.45,92.76,-22611.44,14788.56,5469.52,81.38,-244.1,178.58
2781,0.0,0.049,0.0,1.0,0.245,56.51,92.58,-22359.44,15056.56,5221.52,175.38,-436.1,174.58
2800,0.0,0.025,0.0,1.0,0.211,56.54,92.34,-22287.44,15108.56,5241.52,-264.62,-476.1,-27.42
2820,0.0,0.017,0.0,0.557,0.279,56.62,92.18,-22323.44,14860.56,4961.52,-318.62,-521.1,26.58
2840,0.0,0.017,0.0,1.0,0.684,56.68,92.02,-22415.44,15172.56,5125.52,-3.62,-339.1,152.58
2860,0.0,0.033,0.0,1.0,0.279,56.73,91.77,-22615.44,15328.56,5377.52,-150.62,-292.1,47.58
2880,0.0,0.276,0.787,1.0,0.279,56.77,91.52,-22563.44,15120.56,5281.52,-329.62,-577.1,-43.42
2901,0.0,0.017,0.0,1.0,0.0,56.82,91.25,-22399.44,15204.56,5397.52,-234.62,-328.1,-204.42
2920,0.0,0.057,0.0,1.0,0.684,56.94,90.9,-22559.44,14808.56,5561.52,-337.62,-263.1,-165.42
2940,0.0,0.017,0.183,1.0,0.11,57.04,90.62,-22411.44,15024.56,5613.52,168.38,-95.1,-76.42
2959,0.0,0.049,0.0,1.0,0.144,57.12,90.35,-22683.44,15212.56,5625.52,140.38,-186.1,-21.42
2979,0.0,0.025,0.0,1.0,0.279,57.2,90.03,-22571.44,15224.56,5693.52,-92.62,-31.1,-339.42
