timestamp,flex_1,flex_2,flex_3,flex_4,flex_5,kalman_pitch,kalman_roll,acc_x,acc_y,acc_z,gyro_x,gyro_y,gyro_z
0,1.0,0.245,0.656,0.352,0.363,202.79,142.05,2208.64,5863.44,14169.12,3028.92,14470.22,2088.98
19,1.0,0.627,1.0,0.34,0.0,144.87,106.3,1752.64,3975.44,14433.12,-109.08,11816.22,838.98
38,1.0,0.506,1.0,0.352,0.0,108.08,83.15,368.64,3715.44,15445.12,-879.08,7941.22,-759.02
58,1.0,0.525,1.0,0.69,0.0,81.39,66.46,96.64,3783.44,14805.12,-2611.08,3396.22,-5277.02
79,1.0,0.283,1.0,0.071,1.0,60.42,57.12,1852.64,7027.44,15093.12,-4136.08,-129.78,-6284.02
99,1.0,0.704,1.0,0.177,0.0,44.58,44.11,236.64,1147.44,15181.12,-10875.08,-3733.78,-2485.02
119,1.0,0.322,1.0,0.071,0.957,32.38,31.58,76.64,-1944.56,15489.12,-15482.08,-4290.78,-2435.02
139,1.0,0.0,0.0,0.0,0.0,22.46,19.89,376.64,-4048.56,16025.12,-20673.08,-5092.78,-4368.02
159,1.0,0.506,1.0,0.0,0.105,15.04,8.45,-2863.36,-7400.56,15785.12,-25184.08,-6574.78,-4663.02
179,1.0,0.13,0.0,0.265,1.0,8.2,-2.49,-411.36,-10820.56,13429.12,-24100.08,-7307.78,-1510.02
199,0.995,0.315,1.0,0.027,0.621,2.32,-11.95,1028.64,-13812.56,13693.12,-21319.08,-6550.78,3581.98
219,0.804,1.0,1.0,0.0,0.906,-2.31,-19.86,1144.64,-15140.56,14757.12,-18366.08,-2969.78,10277.98
239,0.521,0.175,1.0,0.277,0.0,-6.34,-26.91,2904.64,-16760.56,15673.12,-18225.08,-1275.78,17222.98
259,0.419,0.0,0.0,0.365,0.0,-9.72,-33.56,4172.64,-18144.56,15549.12,-19253.08,1191.22,23795.98
279,0.309,0.353,1.0,0.647,0.0,-12.36,-39.93,6500.64,-19088.56,14965.12,-20255.08,5747.22,29000.98
299,0.217,1.0,1.0,0.0,0.0,-14.52,-46.01,6524.64,-21624.56,16701.12,-22625.08,6265.22,32898.98
319,0.359,0.436,1.0,0.24,0.0,-16.8,-51.96,5752.64,-23932.56,17617.12,-24894.08,2748.22,32898.98
339,0.315,0.373,0.0,0.227,0.0,-19.71,-57.67,5768.64,-25676.56,16741.12,-25053.08,-3215.78,32898.98
359,0.423,0.659,1.0,0.403,0.286,-23.27,-63.0,7168.64,-24948.56,14797.12,-23657.08,-7942.78,32898.98
379,0.396,0.347,0.0,0.196,0.0,-26.94,-68.04,7796.64,-25676.56,12705.12,-22400.08,-10028.78,32898.98
399,0.379,0.627,1.0,0.033,1.0,-30.24,-72.56,7868.64,-26208.56,11737.12,-20122.08,-9129.78,32898.98
419,0.423,0.086,0.0,0.0,0.0,-33.34,-76.27,6252.64,-24612.56,12253.12,-16978.08,-9428.78,32898.98
439,0.39,0.468,0.0,0.158,1.0,-36.44,-79.18,5464.64,-23720.56,11781.12,-12646.08,-10886.78,32898.98
459,0.353,0.213,0.0,0.421,0.0,-39.27,-81.89,4668.64,-20868.56,9137.12,-10611.08,-9659.78,32898.98
479,0.375,1.0,1.0,0.221,1.0,-41.81,-85.6,5092.64,-17772.56,6601.12,-16398.08,-7221.78,32898.98
499,0.256,0.933,1.0,1.0,0.932,-43.34,-90.28,828.64,-17660.56,6137.12,-24223.08,-4012.78,32898.98
519,0.476,0.583,0.0,0.359,1.0,-44.75,-94.61,-2527.36,-17212.56,6513.12,-23864.08,-6222.78,32898.98
539,0.576,0.927,0.984,0.521,1.0,-46.56,-97.52,-4355.36,-13496.56,7577.12,-16829.08,-9933.78,32898.98
559,0.844,0.149,0.0,0.064,1.0,-48.79,-99.38,-5195.36,-13396.56,7305.12,-10288.08,-14340.78,32898.98
579,0.504,0.149,0.0,0.252,1.0,-51.65,-99.58,-4519.36,-9608.56,8105.12,-742.08,-17415.78,32898.98
599,0.712,0.449,1.0,0.34,0.441,-55.03,-97.73,-4327.36,-2176.56,9681.12,8694.92,-16345.78,32898.98
619,0.844,1.0,1.0,0.471,1.0,-58.69,-95.87,-6215.36,2875.44,8321.12,9060.92,-13410.78,32898.98
639,0.712,0.0,0.0,0.772,0.105,-61.94,-94.94,-7443.36,4235.44,8309.12,51.92,-10220.78,32898.98
659,0.475,0.0,1.0,0.0,0.389,-63.97,-95.62,-9471.36,3947.44,7637.12,-4926.08,-8774.78,32898.98
679,0.6,1.0,0.0,1.0,0.337,-65.51,-95.86,-7391.36,2855.44,7637.12,-1239.08,-4066.78,32898.98
699,0.533,1.0,0.0,0.803,1.0,-67.28,-93.17,-9371.36,5623.44,7985.12,6776.92,-642.78,32898.98
719,0.241,1.0,1.0,1.0,0.0,-66.5,-86.25,-10347.36,9171.44,10553.12,3611.92,226.22,29629.98
739,0.62,0.946,0.0,0.859,1.0,-67.68,-82.54,-10003.36,6215.44,8449.12,2804.92,303.22,24726.98
759,0.703,0.844,1.0,0.922,0.544,-67.75,-74.06,-9987.36,8763.44,7845.12,3763.92,1310.22,18508.98
779,0.874,0.22,1.0,1.0,1.0,-66.79,-63.53,-10771.36,9019.44,6117.12,5627.92,2297.22,15354.98
799,0.745,1.0,1.0,0.772,0.0,-64.68,-55.04,-11667.36,9907.44,7681.12,5749.92,3598.22,14182.98
819,0.899,0.921,1.0,1.0,1.0,-62.82,-45.42,-12007.36,8203.44,6841.12,7940.92,1486.22,11607.98
839,0.818,1.0,0.0,1.0,1.0,-59.23,-34.18,-14403.36,9435.44,5577.12,15795.92,-955.78,11154.98
859,0.875,1.0,1.0,1.0,0.441,-55.9,-22.52,-15735.36,9051.44,4609.12,15827.92,-5971.78,10467.98
879,0.815,1.0,0.0,1.0,0.0,-53.69,-12.39,-18655.36,15151.44,3725.12,17033.92,-9961.78,2546.98
899,0.942,0.806,0.0,1.0,0.0,-51.46,-3.45,-19331.36,12375.44,2553.12,5638.92,-12809.78,-7136.02
919,0.991,1.0,1.0,1.0,0.0,-47.98,4.26,-25219.36,11163.44,2737.12,-2543.08,-11268.78,-14710.02
939,0.969,0.678,1.0,1.0,0.57,-43.69,10.43,-32555.36,11155.44,4253.12,-7208.08,-9374.78,-18013.02
959,1.0,0.819,1.0,0.0,0.0,-39.61,14.92,-36363.36,13895.44,6017.12,-8974.08,-9325.78,-19761.02
979,0.98,1.0,1.0,1.0,0.311,-34.96,18.43,-39603.36,14239.44,7389.12,-10796.08,-5284.78,-21444.02
999,1.0,1.0,0.0,0.872,0.234,-29.94,19.86,-43723.36,12459.44,11841.12,-11217.08,-2660.78,-18123.02
1019,1.0,0.825,0.0,1.0,0.079,-25.61,21.82,-44999.36,15759.44,16845.12,-4174.08,-3175.78,-10664.02
1039,1.0,0.309,0.0,1.0,0.932,-21.93,24.8,-41191.36,19639.44,17709.12,663.92,-3977.78,-5278.02
1059,1.0,1.0,1.0,1.0,0.932,-18.14,27.8,-34427.36,19955.44,15909.12,-401.08,-324.78,-4930.02
1079,1.0,0.838,0.0,1.0,0.0,-13.56,30.97,-32239.36,17543.44,12497.12,-932.08,4351.22,-4943.02
1099,1.0,1.0,0.0,1.0,0.596,-8.54,34.28,-30407.36,12811.44,9449.12,-1385.08,4503.22,-4359.02
1119,0.831,0.666,1.0,0.521,0.0,-3.98,38.6,-28807.36,10283.44,7865.12,2963.92,-28.78,-1710.02
1139,0.806,1.0,0.0,1.0,0.0,-0.86,44.45,-22423.36,10695.44,6581.12,8175.92,-5416.78,-684.02
1159,1.0,0.959,1.0,0.465,0.0,0.85,49.75,-18895.36,14131.44,7437.12,9923.92,-5117.78,-2280.02
1179,0.91,1.0,0.0,1.0,0.0,2.37,53.96,-16215.36,13707.44,8625.12,7357.92,-1482.78,-7169.02
1199,1.0,1.0,1.0,1.0,0.0,4.47,57.15,-16259.36,14691.44,11097.12,6873.92,4472.22,-11633.02
1219,0.763,0.43,1.0,1.0,1.0,7.59,58.96,-17459.36,12375.44,13121.12,5531.92,9201.22,-18794.02
1239,1.0,0.889,1.0,1.0,0.0,10.7,59.84,-17127.36,10775.44,15837.12,6513.92,11948.22,-24722.02
1259,1.0,0.819,1.0,1.0,0.0,13.91,60.8,-17615.36,9395.44,18157.12,11717.92,14185.22,-29163.02
1279,0.886,0.768,0.0,0.978,0.337,18.23,62.06,-21623.36,8811.44,20213.12,16212.92,19337.22,-32636.02
1299,0.787,0.092,1.0,1.0,1.0,23.16,61.8,-21635.36,5315.44,19605.12,11992.92,24428.22,-32636.02
1319,0.949,0.851,1.0,1.0,1.0,29.25,59.49,-26327.36,-1588.56,19289.12,8358.92,31604.22,-32636.02
1339,0.756,0.251,1.0,1.0,1.0,35.31,56.1,-30975.36,-6496.56,16677.12,7790.92,31604.22,-32636.02
1359,0.734,1.0,0.0,1.0,1.0,40.85,50.55,-33783.36,-14836.56,10393.12,2252.92,31604.22,-32636.02
1379,0.809,1.0,0.0,1.0,0.932,45.5,43.72,-34151.36,-26236.56,1605.12,-1289.08,31604.22,-32636.02
1399,0.89,0.0,1.0,1.0,1.0,50.07,36.89,-38779.36,-26236.56,-7554.88,2309.92,31604.22,-14275.02
1419,1.0,0.462,0.0,0.866,0.0,54.04,30.78,-34955.36,-26236.56,-15670.88,9676.92,31604.22,6027.98
1439,0.91,1.0,1.0,1.0,0.0,56.58,23.03,-23323.36,-26236.56,-23918.88,212.92,28969.22,13999.98
1459,0.811,1.0,0.0,1.0,0.0,58.57,13.42,-19203.36,-26236.56,-25510.88,-13858.08,28070.22,15710.98
1479,0.855,0.0,0.984,1.0,1.0,58.89,2.94,-13815.36,-26236.56,-25510.88,-22335.08,19940.22,22373.98
1499,1.0,1.0,1.0,1.0,1.0,57.14,-7.07,-11891.36,-25592.56,-25510.88,-21713.08,6967.22,32898.98
1519,0.954,1.0,1.0,0.891,0.105,53.29,-16.32,-7983.36,-18144.56,-24150.88,-16975.08,-5747.78,32898.98
1539,0.943,1.0,1.0,0.0,1.0,48.59,-25.38,-3395.36,-12800.56,-20454.88,-16977.08,-9676.78,32898.98
1559,0.828,0.347,0.0,0.64,1.0,44.0,-35.03,-1831.36,-6792.56,-16782.88,-21363.08,-7991.78,32898.98
1579,0.787,1.0,1.0,1.0,0.0,39.39,-45.05,-3023.36,-4584.56,-12370.88,-26801.08,-8821.78,32898.98
1599,0.857,0.0,1.0,0.922,0.105,33.97,-54.98,-615.36,-2400.56,-9034.88,-28745.08,-12195.78,32068.98
1619,0.802,0.933,1.0,1.0,0.286,27.84,-64.98,1024.64,-924.56,-6878.88,-31800.08,-15890.78,28773.98
1639,0.916,1.0,0.0,0.847,0.0,21.34,-74.35,2248.64,-2144.56,-5938.88,-32359.08,-19243.78,25387.98
1659,0.675,0.0,0.0,0.0,0.337,14.26,-83.4,1728.64,87.44,-3194.88,-32359.08,-22925.78,21913.98
1679,0.934,0.761,0.874,0.96,0.0,6.37,-91.4,3704.64,-208.56,-1718.88,-29673.08,-28470.78,20856.98
1699,0.918,1.0,1.0,1.0,0.0,-2.21,-98.32,6172.64,-764.56,-706.88,-26674.08,-33930.78,20003.98
1719,0.721,0.94,1.0,1.0,0.208,-10.94,-105.55,11648.64,2867.44,-606.88,-24905.08,-33930.78,19236.98
1739,0.723,1.0,1.0,1.0,0.776,-19.51,-110.27,13348.64,339.44,4137.12,-23005.08,-33930.78,15357.98
1759,0.785,0.513,1.0,0.521,0.0,-27.58,-108.31,5988.64,7243.44,13073.12,-21422.08,-33930.78,4424.98
1779,0.888,0.87,0.0,1.0,0.906,-33.69,-107.9,2140.64,5991.44,23981.12,-29098.08,-33930.78,-3745.02
1799,0.787,0.315,0.0,0.885,1.0,-36.46,-107.99,-10671.36,4815.44,33457.12,-32359.08,-25787.78,-4102.02
1819,0.631,1.0,0.0,1.0,0.182,-36.63,-106.59,-22063.36,9983.44,38445.12,-26229.08,-16188.78,-4227.02
1839,0.732,1.0,0.0,1.0,1.0,-35.13,-103.07,-33775.36,18571.44,40024.12,-16571.08,-10016.78,-7304.02
1859,0.537,0.87,0.0,1.0,0.0,-33.66,-97.71,-30551.36,22503.44,40024.12,-5395.08,-8314.78,-3639.02
1879,0.725,0.946,0.0,0.997,0.234,-30.24,-90.94,-29223.36,28859.44,40024.12,2576.92,6449.22,-6346.02
1899,0.717,1.0,1.0,1.0,0.105,-24.31,-85.13,-36059.36,22503.44,31005.12,-2335.08,18874.22,-11245.02
1919,0.653,0.525,0.0,0.91,0.0,-17.64,-78.97,-38539.36,14567.44,19113.12,1258.92,18246.22,-8129.02
1939,0.853,0.933,0.0,1.0,1.0,-11.34,-71.25,-37163.36,11003.44,10453.12,6489.92,11958.22,-4474.02
1959,0.708,1.0,1.0,0.853,0.854,-6.31,-61.72,-33515.36,11879.44,7449.12,9416.92,5370.22,840.98
1979,0.688,1.0,0.0,0.528,0.0,-2.57,-52.62,-30127.36,15947.44,7413.12,8408.92,2381.22,3928.98
1999,0.73,0.895,1.0,0.903,1.0,0.93,-44.41,-27395.36,15943.44,7425.12,4535.92,3034.22,3235.98
2019,0.543,0.933,1.0,1.0,0.0,4.46,-36.29,-26331.36,14011.44,5997.12,2411.92,2950.22,2165.98
2038,0.71,1.0,1.0,0.972,0.0,7.36,-27.97,-25503.36,13827.44,5673.12,4774.92,-255.78,3115.98
2059,0.736,1.0,1.0,1.0,0.0,9.06,-20.54,-23443.36,16247.44,6725.12,3801.92,-3869.78,2659.98
2078,0.914,0.334,1.0,0.0,0.906,10.63,-14.16,-21975.36,15779.44,7877.12,820.92,-3517.78,541.98
2099,0.828,0.0,1.0,1.0,0.596,12.74,-8.66,-22551.36,14699.44,8845.12,-1291.08,-1128.78,-1575.02
2119,1.0,1.0,1.0,1.0,1.0,15.54,-4.02,-24247.36,12143.44,9493.12,-2131.08,51.22,-2929.02
2139,0.728,1.0,0.0,0.0,0.492,18.17,0.39,-25719.36,11551.44,10377.12,794.92,-1559.78,-2266.02
2159,0.796,0.793,1.0,0.697,0.027,20.31,4.96,-25223.36,13023.44,10853.12,2071.92,-2198.78,-1761.02
2178,0.846,1.0,0.0,0.891,0.0,22.71,8.77,-25955.36,12911.44,11669.12,26.92,-6.78,-1882.02
2199,0.896,0.933,1.0,0.978,0.0,25.35,11.99,-26723.36,12807.44,12349.12,-1556.08,2058.22,-2177.02
2219,0.822,0.8,1.0,1.0,0.0,28.11,15.13,-26819.36,12511.44,12141.12,-1167.08,3221.22,-1920.02
2238,0.771,0.965,1.0,0.866,1.0,30.74,18.73,-26779.36,13175.44,11509.12,599.92,3204.22,-1319.02
2259,0.828,1.0,1.0,0.615,0.0,33.08,22.52,-26215.36,13491.44,11241.12,1924.92,2371.22,-644.02
2279,0.741,0.997,1.0,1.0,0.0,35.27,26.24,-26319.36,13635.44,11749.12,3406.92,2285.22,-633.02
2299,0.844,0.404,0.0,0.396,1.0,37.46,30.17,-26039.36,13355.44,11281.12,5272.92,2604.22,-1286.02
2319,0.85,0.761,1.0,1.0,0.13,39.73,34.48,-26411.36,13343.44,9917.12,5911.92,2900.22,-1714.02
2339,0.918,1.0,0.0,0.597,0.0,42.06,38.78,-26695.36,12871.44,8729.12,4338.92,2903.22,-2127.02
2359,0.703,0.691,1.0,1.0,0.854,44.54,43.08,-27347.36,11719.44,7545.12,2262.92,2771.22,-2147.02
2379,0.723,0.863,0.0,1.0,1.0,46.97,47.44,-28019.36,10871.44,7105.12,2069.92,1934.22,-1234.02
2398,0.784,0.755,1.0,0.34,0.0,48.8,51.74,-27947.36,12327.44,7325.12,3777.92,30.22,45.98
2418,0.695,1.0,1.0,1.0,0.0,50.02,55.67,-27375.36,14607.44,7769.12,3471.92,-993.78,547.98
2438,0.684,1.0,1.0,1.0,1.0,51.2,58.82,-26271.36,14235.44,8253.12,444.92,-608.78,152.98
2458,0.837,1.0,0.0,1.0,1.0,52.6,61.32,-27063.36,14323.44,9061.12,-1142.08,1039.22,199.98
2478,0.802,0.933,1.0,1.0,0.0,54.16,63.74,-27271.36,13475.44,9049.12,-549.08,1561.22,-7.02
2498,0.835,0.71,1.0,1.0,0.13,55.38,66.4,-27759.36,14771.44,9033.12,1171.92,679.22,410.98
2518,0.875,0.035,1.0,1.0,1.0,56.42,69.04,-26691.36,13711.44,8481.12,979.92,-794.78,757.98
2538,0.932,0.475,1.0,0.0,0.0,57.34,71.66,-26199.36,14107.44,8425.12,1286.92,-549.78,902.98
2558,0.947,1.0,1.0,0.891,1.0,58.49,74.0,-26751.36,13803.44,8461.12,512.92,626.22,640.98
2578,1.0,0.933,1.0,1.0,1.0,59.7,76.05,-27203.36,13603.44,8573.12,-428.08,1046.22,159.98
2598,0.668,0.0,0.984,1.0,1.0,60.93,77.81,-26995.36,12391.44,8489.12,-1349.08,261.22,310.98
2618,0.795,0.933,1.0,1.0,1.0,61.88,79.63,-26523.36,12787.44,8549.12,-359.08,-557.78,908.98
2638,0.778,0.902,1.0,1.0,0.0,62.77,81.31,-26239.36,12799.44,9053.12,761.92,-395.78,1501.98
2658,0.776,1.0,1.0,1.0,0.0,63.51,82.91,-26343.36,14111.44,9389.12,673.92,287.22,1217.98
2678,0.962,0.933,1.0,1.0,1.0,64.31,84.18,-26207.36,13751.44,9373.12,-783.08,618.22,427.98
2698,0.776,0.8,0.0,0.309,0.0,65.23,85.45,-26031.36,12947.44,8949.12,-822.08,918.22,93.98
2718,0.73,0.755,1.0,0.0,1.0,66.09,86.8,-25971.36,12927.44,8953.12,238.92,758.22,262.98
2738,0.743,0.0,1.0,1.0,1.0,66.75,88.38,-26063.36,13751.44,8649.12,1056.92,509.22,307.98
2758,0.642,0.876,1.0,0.321,0.0,67.37,89.81,-26067.36,13751.44,8477.12,129.92,413.22,-240.02
2778,0.853,0.71,1.0,0.0,1.0,68.0,91.02,-25895.36,13251.44,8609.12,-221.08,304.22,-372.02
2798,0.614,0.666,1.0,1.0,0.105,68.63,92.18,-25839.36,13111.44,8801.12,469.92,508.22,-229.02
2818,0.688,1.0,0.0,0.546,0.0,69.3,93.27,-26487.36,13559.44,9061.12,904.92,1173.22,-162.02
2838,0.991,0.946,1.0,1.0,0.0,69.9,94.19,-26835.36,14079.44,9113.12,21.92,1308.22,-837.02
2858,0.855,0.895,1.0,0.859,0.802,70.56,95.08,-26555.36,13155.44,8481.12,-954.08,977.22,-1148.02
2878,0.822,1.0,0.984,0.872,1.0,71.36,96.04,-26447.36,12007.44,8325.12,145.92,1005.22,-714.02
2898,0.883,0.991,0.0,0.246,0.0,71.86,97.33,-26695.36,13571.44,8349.12,2131.92,790.22,11.98
2918,0.807,1.0,0.0,0.371,1.0,72.2,98.49,-26619.36,14343.44,8461.12,1746.92,761.22,-449.02
2938,0.594,1.0,1.0,0.784,0.0,72.59,99.42,-26591.36,13831.44,8217.12,166.92,740.22,-1019.02
2958,0.739,0.793,1.0,1.0,1.0,73.09,100.09,-26803.36,12815.44,8325.12,-419.08,553.22,-881.02
2978,0.92,0.551,0.0,0.722,0.105,73.52,100.75,-27235.36,13071.44,8765.12,897.92,346.22,16.98
