timestamp,flex_1,flex_2,flex_3,flex_4,flex_5,kalman_pitch,kalman_roll,acc_x,acc_y,acc_z,gyro_x,gyro_y,gyro_z
0,0.923,0.036,0.0,0.0,0.0,13.55,30.44,-2026.24,-1424.8,20939.12,-541.74,1794.0,2853.02
20,1.0,0.007,0.0,0.0,0.0,-2.74,3.82,-2386.24,-2228.8,21659.12,590.26,3315.0,4226.02
39,1.0,0.015,0.0,0.0,0.0,-9.88,-8.98,-2758.24,-2996.8,22523.12,2789.26,4320.0,6147.02
59,1.0,0.029,0.058,0.0,0.011,-13.52,-15.83,-3334.24,-2740.8,23263.12,5334.26,5756.0,7716.02
79,1.0,0.0,0.164,0.0,0.0,-15.43,-19.31,-4098.24,-1732.8,24635.12,6154.26,5976.0,8622.02
99,1.0,0.007,0.058,0.0,0.0,-16.61,-22.01,-4486.24,-2024.8,24883.12,4573.26,5438.0,9068.02
120,1.0,0.0,0.0,0.0,0.0,-17.14,-24.33,-4658.24,-3316.8,25711.12,3924.26,5814.0,10034.02
139,1.0,0.0,0.0,0.0,0.0,-17.23,-26.17,-5050.24,-4752.8,26455.12,5415.26,5996.0,11539.02
159,1.0,0.0,0.0,0.0,0.0,-17.13,-27.06,-5202.24,-4752.8,27091.12,8838.26,6412.0,13617.02
178,1.0,0.029,0.0,0.0,0.0,-16.83,-27.28,-5370.24,-4188.8,27371.12,11132.26,7578.0,14591.02
200,1.0,0.007,0.0,0.0,0.0,-16.49,-27.22,-4502.24,-3444.8,27131.12,11580.26,9816.0,14432.02
219,1.0,0.007,0.023,0.0,0.0,-15.72,-27.33,-5346.24,-4236.8,27051.12,11252.26,11424.0,15464.02
239,1.0,0.0,0.0,0.0,0.0,-14.65,-27.09,-5170.24,-4816.8,27883.12,13245.26,13636.0,16322.02
260,1.0,0.029,0.0,0.0,0.0,-13.24,-26.21,-6506.24,-3708.8,29047.12,15399.26,14742.0,18976.02
279,1.0,0.007,0.058,0.0,0.0,-11.58,-25.01,-7914.24,-2984.8,29803.12,16524.26,15298.0,20789.02
299,0.823,0.043,0.0,0.0,0.011,-10.11,-24.25,-7538.24,-2916.8,28319.12,15002.26,15676.0,21082.02
320,0.743,0.043,0.058,0.0,0.0,-8.86,-23.7,-7810.24,-3512.8,28003.12,14669.26,14444.0,21832.02
340,0.851,0.043,0.0,0.0,0.0,-7.24,-22.47,-8078.24,-2656.8,28671.12,18250.26,17295.0,22741.02
360,0.862,0.072,0.0,0.0,0.0,-5.27,-20.92,-9190.24,-1056.8,27995.12,19751.26,19384.0,22387.02
379,1.0,0.057,0.552,1.0,0.0,-3.2,-19.2,-9858.24,251.2,27583.12,20330.26,20415.0,21791.02
400,1.0,0.05,0.093,0.0,0.011,-0.87,-17.22,-10986.24,859.2,27735.12,22022.26,21625.0,21507.02
419,0.431,0.072,0.235,0.0,0.0,1.69,-14.88,-12630.24,2131.2,27463.12,24095.26,22097.0,20609.02
439,0.424,0.072,0.0,0.0,0.0,4.26,-12.19,-12246.24,3971.2,26651.12,25439.26,23918.0,18914.02
460,0.327,0.079,0.0,0.0,0.0,7.13,-9.6,-13222.24,5475.2,25127.12,24311.26,25597.0,17309.02
479,0.388,0.072,0.0,0.0,0.0,10.23,-7.07,-15034.24,6871.2,24799.12,22821.26,25313.0,16018.02
499,0.481,0.036,0.0,0.0,0.0,13.38,-4.47,-15650.24,8303.2,23803.12,22105.26,25654.0,14732.02
519,0.607,0.072,0.0,0.0,0.0,16.68,-2.21,-16546.24,8815.2,21751.12,19896.26,25321.0,13238.02
540,0.553,0.043,0.058,0.0,0.011,19.93,0.1,-16678.24,9947.2,20703.12,18649.26,25425.0,12710.02
559,0.564,0.057,0.023,0.0,0.011,23.41,2.74,-18214.24,11483.2,19563.12,17670.26,24506.0,12163.02
579,0.478,0.05,0.0,0.0,0.0,26.87,5.43,-19498.24,11891.2,19147.12,17731.26,23141.0,11466.02
599,0.442,0.05,0.023,0.0,0.0,29.82,8.45,-19066.24,12851.2,18543.12,18093.26,21471.0,10348.02
619,0.435,0.228,0.0,0.0,0.0,32.63,11.92,-19286.24,14167.2,17443.12,17747.26,20931.0,9025.02
639,0.503,0.064,0.0,1.0,0.011,35.44,15.55,-19342.24,14695.2,16047.12,16387.26,20955.0,7694.02
660,0.582,0.121,0.0,0.0,0.0,38.21,19.37,-19670.24,15503.2,14531.12,13806.26,20772.0,6442.02
679,0.672,0.072,0.023,0.0,0.0,40.84,23.25,-20310.24,16367.2,13407.12,11272.26,20308.0,5826.02
700,0.912,0.057,0.0,0.0,0.0,43.19,26.92,-20822.24,16391.2,12835.12,9316.26,18376.0,5566.02
719,0.686,0.043,0.0,0.0,0.011,44.95,30.56,-20902.24,17039.2,12719.12,9354.26,15927.0,5275.02
740,0.682,0.022,0.0,0.0,0.0,46.32,34.61,-21206.24,17967.2,11791.12,10269.26,14456.0,4713.02
759,0.733,0.057,0.0,0.0,0.011,47.24,38.73,-20742.24,18443.2,11279.12,10554.26,13082.0,4066.02
779,0.661,0.05,0.0,0.0,0.0,47.94,42.92,-20778.24,18783.2,10131.12,9550.26,12355.0,2820.02
799,0.751,0.05,0.0,0.0,0.011,48.47,46.91,-21054.24,19175.2,9227.12,7280.26,11641.0,1435.02
820,0.657,0.057,0.058,0.0,0.0,48.73,50.43,-21554.24,19299.2,9003.12,4720.26,9595.0,558.02
839,0.722,0.057,0.023,0.0,0.0,48.76,53.82,-21730.24,18979.2,8323.12,3215.26,7672.0,230.02
859,0.693,0.036,0.0,0.0,0.0,48.52,57.11,-21622.24,18871.2,8167.12,2977.26,6008.0,47.02
880,0.654,0.072,0.0,0.0,0.0,48.14,60.24,-22038.24,18779.2,8387.12,3279.26,4264.0,-261.98
900,0.654,0.022,0.0,0.0,0.0,47.51,63.27,-21862.24,19367.2,8171.12,3217.26,3372.0,-483.98
920,0.722,0.015,0.0,0.0,0.0,46.96,65.93,-22454.24,19447.2,8315.12,1933.26,3054.0,-695.98
939,0.729,0.05,0.0,0.0,0.0,46.4,68.33,-23006.24,19631.2,8303.12,875.26,2362.0,-639.98
959,0.729,0.029,0.0,0.0,0.0,45.81,70.59,-23202.24,19447.2,8275.12,454.26,1536.0,-434.98
980,0.614,0.015,0.093,0.0,0.0,45.15,72.81,-23418.24,19851.2,8103.12,623.26,1055.0,136.02
1000,0.866,0.036,0.0,0.0,0.0,44.51,74.96,-23722.24,19895.2,8131.12,846.26,650.0,284.02
1019,0.697,0.015,0.058,0.0,0.0,43.89,76.98,-24042.24,19851.2,8111.12,557.26,129.0,219.02
1039,0.618,0.029,0.0,0.0,0.083,43.24,78.84,-24306.24,19927.2,8311.12,439.26,-468.0,283.02
1059,0.654,0.043,0.0,0.0,0.0,42.61,80.55,-24498.24,19971.2,8563.12,522.26,-884.0,432.02
1080,0.629,0.022,0.0,0.0,0.011,42.0,82.27,-24610.24,20115.2,8323.12,656.26,-957.0,443.02
1099,0.618,0.036,0.0,0.0,0.0,41.46,83.95,-24366.24,20007.2,8371.12,964.26,-560.0,270.02
1119,0.585,0.072,0.0,0.0,0.0,41.06,85.47,-24542.24,19955.2,8591.12,835.26,-191.0,-91.98
1139,0.607,0.072,0.0,0.0,0.011,40.74,86.8,-24750.24,19783.2,8891.12,515.26,-208.0,-385.98
1159,0.557,0.029,0.446,0.0,0.0,40.45,88.04,-24622.24,19695.2,8771.12,82.26,-98.0,-553.98
1180,0.564,0.05,0.0,0.0,0.0,40.23,89.24,-24782.24,19415.2,8619.12,-168.74,-209.0,-576.98
1199,0.56,0.057,0.023,0.0,0.0,40.02,90.43,-24742.24,19303.2,8699.12,233.26,-431.0,-331.98
1219,0.564,0.022,0.023,0.0,0.0,39.8,91.61,-24418.24,19339.2,8631.12,407.26,-247.0,-245.98
1239,0.848,0.015,0.023,0.0,0.0,39.68,92.63,-24498.24,19299.2,8851.12,226.26,127.0,-364.98
1259,0.549,0.007,0.0,0.0,0.0,39.59,93.48,-24646.24,19423.2,8915.12,-505.74,273.0,-579.98
1278,0.499,0.036,0.0,0.0,0.0,39.49,94.2,-24706.24,19539.2,8951.12,-1022.74,59.0,-551.98
1300,0.506,0.057,0.552,0.0,0.0,39.37,94.86,-24622.24,19383.2,9055.12,-984.74,-184.0,-380.98
1319,0.506,0.036,0.058,0.0,0.0,39.24,95.59,-24646.24,19307.2,8975.12,-432.74,-503.0,-121.98
1339,0.506,0.036,0.0,0.0,0.0,39.09,96.33,-24478.24,19575.2,8967.12,-22.74,-328.0,29.02
1359,0.535,0.029,0.093,0.0,0.0,38.98,97.0,-24506.24,19783.2,8999.12,-172.74,40.0,-70.98
1380,0.499,0.015,0.693,0.0,0.0,38.9,97.5,-24582.24,19819.2,9167.12,-747.74,87.0,-359.98
1400,0.503,0.086,0.0,0.0,0.0,38.8,97.9,-24618.24,19935.2,9235.12,-1071.74,-78.0,-406.98
1419,0.481,0.043,0.0,0.0,0.0,38.73,98.31,-24510.24,19847.2,9139.12,-1011.74,68.0,-441.98
1439,0.485,0.029,0.058,0.0,0.0,38.75,98.73,-24798.24,19739.2,9095.12,-995.74,242.0,-500.98
1459,0.503,0.043,0.023,0.0,0.0,38.76,99.13,-24694.24,19671.2,9119.12,-856.74,145.0,-429.98
1480,0.503,0.029,0.0,0.0,0.0,38.77,99.56,-24814.24,19371.2,9063.12,-677.74,-351.0,-232.98
1500,0.506,0.05,0.0,0.0,0.0,38.72,99.94,-24734.24,19539.2,9303.12,-394.74,-565.0,-166.98
1519,0.503,0.029,0.0,0.0,0.0,38.69,100.34,-24662.24,19543.2,9167.12,-273.74,-448.0,-78.98
1540,0.503,0.05,0.0,0.0,0.0,38.69,100.62,-24534.24,19643.2,9399.12,-505.74,-112.0,-100.98
1559,0.481,0.007,0.023,0.0,0.0,38.75,100.81,-24626.24,19523.2,9415.12,-952.74,63.0,-145.98
1580,0.478,0.036,0.093,0.0,0.0,38.83,101.02,-24590.24,19583.2,9439.12,-733.74,219.0,-87.98
1600,0.503,0.043,0.0,0.0,0.0,38.93,101.25,-24722.24,19531.2,9583.12,-102.74,209.0,95.02
1619,0.503,0.043,0.058,0.0,0.0,39.03,101.49,-24922.24,19619.2,9695.12,253.26,64.0,103.02
1639,0.463,0.007,0.0,0.0,0.0,39.08,101.81,-24658.24,19711.2,9363.12,305.26,-12.0,-24.98
1659,0.478,0.072,0.0,0.0,0.0,39.17,102.04,-24654.24,19655.2,9419.12,-42.74,260.0,-188.98
1680,0.492,0.05,0.023,0.0,0.0,39.31,102.24,-24598.24,19515.2,9331.12,-339.74,445.0,-332.98
1699,0.485,0.022,0.0,0.0,0.658,39.45,102.45,-24646.24,19599.2,9183.12,-386.74,529.0,-357.98
1719,0.499,0.022,0.0,0.0,0.0,39.59,102.74,-24674.24,19423.2,9103.12,4.26,310.0,-239.98
1739,0.506,0.029,0.0,0.0,0.011,39.66,103.02,-24666.24,19715.2,9231.12,446.26,115.0,-99.98
1760,0.467,0.022,0.0,0.0,0.0,39.73,103.26,-24714.24,19711.2,9263.12,373.26,37.0,-117.98
1780,0.492,0.1,0.0,0.0,0.0,39.81,103.47,-24594.24,19611.2,9171.12,31.26,101.0,-173.98
1800,0.514,0.036,0.0,0.0,0.0,39.93,103.6,-24602.24,19467.2,9195.12,-359.74,188.0,-205.98
1819,0.503,0.114,0.058,0.0,0.011,40.08,103.71,-24666.24,19263.2,9235.12,-344.74,162.0,-105.98
1840,0.496,0.029,0.0,0.0,0.0,40.21,103.87,-24754.24,19315.2,9315.12,201.26,-14.0,190.02
1859,0.503,0.029,0.0,0.0,0.0,40.31,104.06,-24702.24,19419.2,9271.12,469.26,-94.0,379.02
1880,0.499,0.022,0.023,0.0,0.0,40.39,104.28,-24546.24,19535.2,9071.12,397.26,41.0,387.02
1899,0.503,0.022,0.0,0.0,0.0,40.46,104.4,-24446.24,19635.2,9143.12,-0.74,133.0,166.02
1920,0.496,0.072,0.0,0.0,0.0,40.57,104.43,-24666.24,19631.2,9235.12,-337.74,159.0,-22.98
1940,0.481,0.007,0.0,0.0,0.0,40.66,104.48,-24690.24,19631.2,9127.12,-364.74,25.0,-54.98
1960,0.452,0.036,0.023,0.0,0.0,40.73,104.52,-24614.24,19667.2,9151.12,-343.74,7.0,-93.98
1978,0.47,0.022,0.0,0.0,0.0,40.81,104.5,-24750.24,19611.2,9291.12,-407.74,-149.0,-24.98
2000,0.481,0.029,0.0,0.0,0.0,40.86,104.56,-24558.24,19583.2,9107.12,-164.74,-256.0,37.02
2020,0.488,0.043,0.0,0.0,0.0,40.93,104.61,-24478.24,19455.2,9211.12,-87.74,-161.0,-2.98
2039,0.478,0.05,0.0,0.0,0.0,41.09,104.6,-24674.24,19395.2,9351.12,-101.74,182.0,-127.98
2059,0.485,0.043,0.0,0.0,0.0,41.24,104.49,-24822.24,19595.2,9603.12,-237.74,206.0,-197.98
2079,0.496,0.057,0.0,0.0,0.0,41.37,104.39,-24790.24,19451.2,9383.12,-600.74,-66.0,-195.98
2100,0.503,0.029,0.0,0.0,0.0,41.5,104.3,-24778.24,19367.2,9375.12,-560.74,-125.0,-116.98
2119,0.485,0.043,0.0,0.0,0.0,41.6,104.27,-24522.24,19423.2,9315.12,-232.74,-13.0,-23.98
2140,0.492,0.043,0.0,0.0,0.0,41.72,104.3,-24562.24,19455.2,9207.12,-30.74,103.0,62.02
2159,0.46,0.029,0.0,0.0,0.0,41.86,104.34,-24586.24,19515.2,9179.12,134.26,226.0,41.02
2179,0.47,0.057,0.023,0.0,0.0,41.98,104.3,-24722.24,19735.2,9371.12,-18.74,239.0,-97.98
2200,0.499,0.022,0.0,0.0,0.0,42.08,104.19,-24754.24,19691.2,9331.12,-469.74,33.0,-264.98
2219,0.47,0.022,0.0,0.0,0.0,42.19,104.07,-24718.24,19459.2,9215.12,-884.74,-75.0,-410.98
2239,0.467,0.007,0.0,0.0,0.0,42.28,103.92,-24622.24,19483.2,9299.12,-826.74,-134.0,-293.98
2259,0.463,0.007,0.023,0.0,0.0,42.4,103.77,-24686.24,19475.2,9455.12,-613.74,1.0,-200.98
2279,0.492,0.015,0.0,0.0,0.0,42.54,103.65,-24710.24,19299.2,9447.12,-450.74,-44.0,-83.98
2299,0.503,0.05,0.0,0.0,0.011,42.63,103.57,-24678.24,19555.2,9507.12,4.26,-120.0,114.02
2319,0.481,0.043,0.0,0.0,0.0,42.72,103.47,-24686.24,19679.2,9591.12,32.26,-31.0,116.02
2339,0.496,0.022,0.0,0.0,0.0,42.86,103.34,-24726.24,19655.2,9563.12,-212.74,309.0,-74.98
2360,0.492,0.0,0.0,0.0,0.0,42.98,103.19,-24682.24,19591.2,9431.12,-550.74,95.0,-221.98
2379,0.503,0.007,0.0,0.0,0.0,43.07,103.01,-24746.24,19635.2,9471.12,-739.74,-54.0,-206.98
2399,0.492,0.029,0.129,0.0,0.0,43.19,102.88,-24646.24,19491.2,9479.12,-380.74,100.0,-188.98
2419,0.506,0.015,0.0,0.0,0.0,43.31,102.8,-24574.24,19555.2,9527.12,51.26,217.0,-87.98
2439,0.499,0.022,0.0,0.0,0.0,43.44,102.76,-24690.24,19535.2,9463.12,190.26,142.0,31.02
2459,0.492,0.022,0.129,0.0,0.0,43.57,102.66,-24890.24,19523.2,9499.12,-94.74,36.0,8.02
2479,0.506,0.029,0.058,0.0,0.0,43.68,102.57,-24770.24,19535.2,9367.12,-241.74,43.0,-50.98
2500,0.514,0.022,0.0,0.0,0.0,43.8,102.48,-24734.24,19555.2,9347.12,-293.74,81.0,-8.98
2519,0.506,0.015,0.0,0.0,0.0,43.95,102.36,-24842.24,19299.2,9543.12,-171.74,34.0,62.02
2540,0.51,0.043,0.058,0.0,0.0,44.04,102.26,-24702.24,19483.2,9639.12,220.26,-73.0,224.02
2559,0.503,0.022,0.0,0.0,0.0,44.13,102.2,-24678.24,19655.2,9579.12,379.26,84.0,158.02
2579,0.499,0.022,0.0,0.0,0.0,44.25,102.15,-24694.24,19503.2,9439.12,205.26,142.0,46.02
2599,0.485,0.043,0.0,0.0,0.0,44.38,102.08,-24694.24,19555.2,9375.12,-63.74,298.0,-101.98
2619,0.567,0.043,0.0,0.0,0.011,44.53,101.98,-24754.24,19451.2,9395.12,-221.74,258.0,-148.98
2640,0.488,0.015,0.164,0.0,0.0,44.65,101.94,-24774.24,19367.2,9131.12,-254.74,116.0,-69.98
2658,0.485,0.029,0.0,0.0,0.0,44.74,101.87,-24842.24,19571.2,9407.12,38.26,-32.0,42.02
2679,0.47,0.0,0.0,0.0,0.0,44.81,101.84,-24790.24,19531.2,9271.12,84.26,-200.0,163.02
2699,0.496,0.022,0.199,0.0,0.0,44.86,101.76,-24546.24,19559.2,9323.12,-115.74,-47.0,156.02
2720,0.481,0.022,0.0,0.0,0.0,44.93,101.68,-24642.24,19451.2,9263.12,-207.74,-80.0,84.02
2739,0.485,0.0,0.0,0.0,0.0,44.98,101.56,-24670.24,19643.2,9499.12,-93.74,-141.0,76.02
2758,0.467,0.007,0.0,0.0,0.0,45.06,101.44,-24850.24,19715.2,9567.12,62.26,29.0,-9.98
2779,0.438,0.015,0.023,0.0,0.0,45.15,101.33,-24770.24,19747.2,9507.12,22.26,205.0,-105.98
2799,0.478,0.036,0.0,0.0,0.0,45.25,101.17,-24846.24,19731.2,9611.12,-96.74,138.0,-190.98
2819,0.478,0.05,0.0,0.0,0.0,45.35,101.04,-24678.24,19571.2,9515.12,-155.74,199.0,-204.98
2839,0.481,0.029,0.023,0.0,0.0,45.47,100.97,-24670.24,19491.2,9307.12,-100.74,347.0,-243.98
2859,0.492,0.029,0.129,0.0,0.0,45.59,100.92,-24746.24,19471.2,9223.12,-87.74,227.0,-189.98
2879,0.503,0.036,0.0,0.0,0.0,45.69,100.92,-24634.24,19287.2,9031.12,-167.74,79.0,-41.98
2900,0.621,0.05,0.023,0.0,0.155,45.76,100.88,-24602.24,19363.2,9223.12,-81.74,-35.0,65.02
2920,0.539,0.007,0.058,0.0,0.0,45.8,100.78,-24666.24,19447.2,9459.12,20.26,-250.0,195.02
2940,0.542,0.072,0.093,0.0,0.011,45.8,100.69,-24546.24,19575.2,9479.12,84.26,-314.0,267.02
2959,0.485,0.022,0.0,0.0,0.0,45.82,100.55,-24614.24,19559.2,9531.12,-156.74,-240.0,173.02
2979,0.463,0.057,0.0,0.0,0.0,45.84,100.41,-24698.24,19703.2,9403.12,-329.74,-145.0,37.02
