timestamp,flex_1,flex_2,flex_3,flex_4,flex_5,kalman_pitch,kalman_roll,acc_x,acc_y,acc_z,gyro_x,gyro_y,gyro_z
0,0.0,0.406,0.525,0.0,0.648,-1.84,9.42,36.16,-1257.2,14239.12,-166.3,-644.04,-457.54
19,0.0,0.355,0.525,0.0,0.648,-20.18,-6.48,1464.16,-2285.2,13591.12,-143.3,60.96,-1003.54
39,0.0,0.304,0.525,0.0,0.826,-29.88,-16.24,2980.16,-3257.2,13295.12,251.7,2806.96,-1051.54
59,0.0,0.287,0.525,0.0,0.683,-34.42,-22.0,3308.16,-4569.2,14975.12,738.7,6966.96,-1026.54
79,0.0,0.261,0.525,0.0,0.683,-36.37,-27.42,4032.16,-6889.2,15143.12,-1638.3,11466.96,606.46
99,0.0,0.253,0.493,0.0,0.54,-36.32,-32.0,3620.16,-8457.2,15823.12,-3833.3,17091.96,3236.46
119,0.0,0.168,0.46,0.0,0.648,-34.8,-35.1,-691.84,-8733.2,18919.12,-7579.3,14326.96,9532.46
138,0.0,0.116,0.361,0.0,0.576,-33.68,-38.47,-2879.84,-11225.2,18831.12,-9022.3,6213.96,12881.46
157,0.0,0.048,0.361,0.0,0.683,-32.99,-41.3,-1075.84,-13597.2,19599.12,-6593.3,5175.96,14420.46
176,0.0,0.04,0.328,0.0,0.612,-32.3,-42.83,-1919.84,-14509.2,21935.12,-1970.3,2937.96,23785.46
195,0.983,0.031,0.328,0.0,0.576,-31.21,-42.71,-2747.84,-15489.2,23539.12,8253.7,4544.96,28899.46
215,0.983,0.023,0.23,0.0,0.612,-29.33,-41.33,-1591.84,-11421.2,22395.12,13841.7,14765.96,32066.46
235,1.0,0.023,0.23,0.0,0.54,-26.09,-39.46,-5099.84,-11553.2,25339.12,15352.7,20037.96,32899.46
255,0.983,0.014,0.427,0.0,0.648,-22.35,-37.4,-5127.84,-13465.2,25735.12,19348.7,24939.96,32899.46
275,1.0,0.023,0.46,1.0,0.612,-18.06,-34.68,-8815.84,-9949.2,26507.12,21028.7,27117.96,32899.46
295,0.983,0.014,0.361,1.0,0.97,-13.6,-31.53,-10271.84,-7909.2,27187.12,22816.7,28872.96,32899.46
315,0.983,0.006,0.46,1.0,0.683,-9.23,-28.66,-11395.84,-6841.2,27199.12,21250.7,29212.96,32899.46
335,0.983,0.0,0.427,0.0,0.791,-5.03,-26.07,-11799.84,-5241.2,26151.12,19492.7,29783.96,32899.46
355,0.983,0.0,0.46,1.0,0.683,-0.51,-23.63,-13703.84,-4101.2,24723.12,18959.7,31543.96,32899.46
375,1.0,0.0,0.361,0.0,0.576,4.13,-21.16,-15783.84,-2681.2,24571.12,18615.7,31543.96,30521.46
395,0.983,0.006,0.427,1.0,0.576,8.52,-18.48,-15975.84,-913.2,23419.12,19194.7,31301.96,27993.46
415,0.65,0.0,0.427,0.0,0.683,12.54,-15.85,-16499.84,-917.2,22303.12,20481.7,29499.96,25444.46
435,0.983,0.04,0.361,0.0,0.576,16.44,-12.81,-17431.84,1818.8,22311.12,20350.7,28925.96,22123.46
455,0.983,0.0,0.296,0.0,0.54,20.01,-10.33,-17967.84,2314.8,21123.12,17000.7,26841.96,16894.46
475,0.983,0.0,0.427,0.0,0.683,23.21,-8.24,-19099.84,2930.8,20363.12,14385.7,23718.96,13312.46
495,0.983,0.0,0.296,0.0,0.898,25.85,-5.97,-18939.84,4534.8,18759.12,13394.7,20194.96,11601.46
515,0.983,0.0,0.427,0.0,0.791,27.9,-3.85,-18255.84,4390.8,17819.12,13354.7,17601.96,10606.46
535,0.317,0.0,0.46,0.0,0.469,29.81,-1.58,-18079.84,5042.8,16515.12,13367.7,16684.96,8858.46
555,0.0,0.0,0.427,0.0,0.504,31.63,0.46,-18583.84,5182.8,15895.12,12074.7,15333.96,6567.46
575,0.317,0.0,0.493,0.0,0.683,33.33,2.65,-20215.84,5778.8,16183.12,12517.7,13007.96,5823.46
595,0.317,0.0,0.296,0.0,0.683,34.53,5.21,-20051.84,7134.8,15435.12,12331.7,10101.96,5668.46
614,0.0,0.0,0.164,0.0,0.54,35.28,7.51,-19919.84,7242.8,14967.12,10654.7,7135.96,5215.46
634,0.0,0.065,0.427,0.0,0.719,35.73,9.63,-18055.84,6870.8,13723.12,9594.7,7144.96,3667.46
654,0.317,0.0,0.361,0.0,0.683,36.64,11.57,-20059.84,7246.8,14443.12,9037.7,7983.96,2633.46
674,0.65,0.0,0.427,0.0,0.469,37.17,13.76,-21295.84,8474.8,14907.12,9369.7,5098.96,3674.46
694,0.65,0.0,0.493,0.0,0.54,37.36,15.72,-20947.84,8290.8,14559.12,8360.7,2943.96,3377.46
714,0.65,0.0,0.361,0.0,0.719,37.21,17.47,-20283.84,8582.8,14599.12,6974.7,1796.96,1973.46
734,0.0,0.0,0.361,0.0,0.576,37.03,19.18,-19999.84,9478.8,14131.12,4927.7,2192.96,941.46
754,0.317,0.0,0.394,0.0,0.576,37.83,19.99,-21603.84,6438.8,14703.12,6416.7,5292.96,1480.46
774,0.317,0.0,0.525,0.0,0.648,37.57,21.18,-22027.84,10242.8,13699.12,113.7,-836.04,-71.54
795,0.317,0.0,0.328,0.0,0.54,38.66,23.96,-23551.84,8626.8,12711.12,12701.7,4378.96,4028.46
814,0.65,0.0,0.427,0.0,0.648,38.58,25.73,-21235.84,9794.8,12607.12,4122.7,326.96,2028.46
834,0.65,0.0,0.46,0.0,0.004,38.86,27.68,-22407.84,10046.8,12051.12,4437.7,981.96,2092.46
855,0.317,0.0,0.296,0.0,0.54,38.99,29.35,-22667.84,10158.8,11723.12,2066.7,-451.04,1338.46
875,0.65,0.0,0.296,0.0,0.683,38.95,30.51,-23171.84,10266.8,11907.12,-747.3,-1977.04,587.46
895,0.65,0.0,0.427,0.0,0.612,38.76,31.26,-23247.84,10546.8,12547.12,-2471.3,-2477.04,-263.54
915,0.0,0.0,0.361,0.0,0.612,38.69,32.03,-22719.84,10162.8,12999.12,-814.3,-1120.04,-73.54
934,0.0,0.0,0.394,0.0,0.612,39.1,32.99,-23991.84,10242.8,12987.12,558.7,745.96,-125.54
954,0.0,0.0,0.427,0.0,0.648,39.38,33.93,-24727.84,10206.8,13127.12,977.7,-742.04,628.46
975,0.65,0.0,0.427,0.0,0.504,39.48,34.91,-24371.84,10522.8,12999.12,760.7,-1415.04,1225.46
994,0.0,0.014,0.427,0.0,0.612,39.76,35.64,-24291.84,10190.8,12967.12,-191.3,-479.04,581.46
1015,0.0,0.0,0.427,0.0,0.576,39.99,36.27,-24775.84,10802.8,13283.12,-1161.3,-450.04,-322.54
1034,0.317,0.0,0.427,0.0,0.54,40.3,36.94,-24739.84,10394.8,12795.12,-922.3,-661.04,-4.54
1054,0.0,0.0,0.328,0.0,0.576,40.59,37.72,-25043.84,10602.8,13047.12,109.7,-578.04,789.46
1074,0.0,0.0,0.427,0.0,0.683,40.86,38.53,-25051.84,10758.8,12755.12,-198.3,-821.04,605.46
1094,0.0,0.0,0.394,0.0,0.504,41.17,39.13,-25115.84,10470.8,12823.12,-923.3,-774.04,-54.54
1115,0.0,0.0,0.427,0.0,0.648,41.46,39.75,-25487.84,10986.8,12987.12,-1064.3,-655.04,-255.54
1134,0.0,0.0,0.361,0.0,1.0,41.72,40.37,-25727.84,10982.8,13223.12,-531.3,-907.04,84.46
1154,0.0,0.0,0.0,0.0,0.683,41.99,40.98,-25635.84,10958.8,13139.12,-470.3,-793.04,267.46
1174,0.0,0.0,0.427,0.0,0.719,42.18,41.52,-25707.84,11070.8,13619.12,-258.3,-908.04,767.46
1194,0.0,0.0,0.493,0.0,0.576,42.4,42.1,-25555.84,11194.8,13471.12,-179.3,-620.04,795.46
1214,0.0,0.0,0.361,0.0,0.54,42.57,42.93,-25871.84,12518.8,13507.12,130.7,-122.04,481.46
1235,0.0,0.0,0.755,0.0,0.576,42.9,43.19,-25843.84,10954.8,13783.12,-1208.3,-34.04,-232.54
1255,0.0,0.0,0.427,0.0,0.683,43.16,43.64,-25607.84,11266.8,13287.12,-980.3,-294.04,-324.54
1274,0.0,0.0,0.427,0.0,0.54,43.44,44.13,-25483.84,11102.8,13239.12,-420.3,-171.04,159.46
1294,0.0,0.0,0.427,0.0,0.683,43.64,44.58,-25699.84,11490.8,13771.12,-319.3,-225.04,167.46
1315,0.0,0.0,0.361,0.0,0.719,43.88,44.94,-25563.84,11202.8,13567.12,-671.3,-143.04,-250.54
1334,0.0,0.0,0.361,0.0,0.719,44.21,45.3,-25387.84,10958.8,13371.12,-554.3,297.96,-414.54
1354,0.0,0.0,0.394,0.0,0.54,44.52,45.69,-25539.84,11314.8,13411.12,-640.3,487.96,-497.54
1375,0.0,0.0,0.427,0.0,0.54,44.76,45.98,-25607.84,11210.8,13447.12,-1034.3,-87.04,-221.54
1395,0.0,0.0,0.427,0.0,0.504,44.96,46.11,-25311.84,10786.8,13595.12,-1188.3,-261.04,-286.54
1415,0.0,0.0,0.427,0.0,1.0,45.24,46.3,-25231.84,10774.8,13459.12,-1030.3,290.96,-623.54
1434,0.0,0.0,0.361,0.0,0.648,45.51,46.51,-25439.84,10966.8,13559.12,-869.3,333.96,-716.54
1454,0.0,0.0,0.164,0.0,0.576,45.7,46.76,-25131.84,10906.8,13363.12,-755.3,-50.04,-521.54
1474,0.0,0.0,0.23,0.0,0.576,45.95,46.98,-25387.84,10786.8,13447.12,-603.3,163.96,-491.54
1494,0.0,0.0,0.46,0.0,0.576,46.11,47.21,-25347.84,11162.8,13515.12,-823.3,-63.04,-466.54
1515,0.0,0.0,0.361,0.0,0.54,46.3,47.39,-25099.84,10770.8,13263.12,-979.3,-131.04,-328.54
1535,0.0,0.0,0.328,0.0,0.576,46.47,47.58,-25271.84,10722.8,13387.12,-588.3,-276.04,-199.54
1555,0.0,0.0,0.0,0.0,0.576,46.64,47.7,-24975.84,10442.8,13439.12,-521.3,-148.04,-230.54
1574,0.0,0.0,0.394,0.0,1.0,46.83,47.83,-25363.84,10754.8,13535.12,-745.3,-33.04,-383.54
1594,0.0,0.0,0.525,0.0,0.54,46.98,48.01,-25415.84,10626.8,13423.12,-285.3,-486.04,143.46
1614,0.0,0.0,0.296,0.0,0.719,47.07,48.29,-25339.84,11010.8,13643.12,313.7,-342.04,573.46
1634,0.0,0.0,0.164,0.0,0.648,47.17,48.46,-25475.84,10978.8,13835.12,-81.3,-322.04,312.46
1655,0.0,0.0,0.493,0.0,0.504,47.26,48.61,-25131.84,10914.8,13675.12,-293.3,-191.04,-148.54
1675,0.0,0.0,0.361,0.0,0.648,47.4,48.67,-25423.84,10638.8,13731.12,-350.3,-236.04,-447.54
1695,0.0,0.0,0.493,0.0,0.862,47.52,48.82,-25363.84,10854.8,13607.12,-218.3,-249.04,-461.54
1715,0.0,0.0,0.525,0.0,0.648,47.67,48.82,-25447.84,10354.8,13771.12,-201.3,-326.04,-180.54
1734,0.0,0.0,0.164,0.0,0.648,47.84,48.72,-25419.84,10014.8,13827.12,-306.3,-331.04,-58.54
1754,0.0,0.0,0.263,0.0,0.576,48.0,48.75,-25235.84,10222.8,13679.12,32.7,-154.04,137.46
1774,0.0,0.0,0.0,0.0,0.504,48.2,48.77,-25343.84,10202.8,13743.12,147.7,56.96,425.46
1794,0.0,0.0,0.427,0.0,0.791,48.39,48.75,-25487.84,10142.8,13799.12,102.7,-41.04,689.46
1814,0.0,0.0,0.525,0.0,0.612,48.47,48.79,-25147.84,10538.8,13811.12,-43.3,-201.04,747.46
1834,0.0,0.0,0.361,0.0,0.826,48.56,48.9,-25411.84,10798.8,13887.12,227.7,-107.04,957.46
1854,0.0,0.0,0.394,0.0,1.0,48.67,49.13,-25383.84,11070.8,13755.12,546.7,198.96,852.46
1874,0.0,0.0,0.427,0.0,0.791,48.82,49.41,-25835.84,11446.8,13719.12,508.7,399.96,254.46
1894,0.0,0.0,0.493,0.0,0.576,48.9,49.66,-25515.84,11422.8,13431.12,-14.3,-36.04,-109.54
1914,0.0,0.0,0.328,0.0,0.433,49.1,49.77,-25439.84,10730.8,13463.12,-24.3,419.96,-309.54
1934,0.0,0.0,0.46,0.0,0.576,49.26,49.92,-25851.84,11266.8,13775.12,170.7,520.96,-275.54
1954,0.0,0.0,0.427,0.0,0.504,49.42,50.03,-25675.84,10810.8,13575.12,183.7,199.96,-197.54
1974,0.0,0.0,0.427,0.0,0.683,49.57,50.14,-25623.84,10886.8,13555.12,144.7,215.96,-297.54
1994,0.0,0.0,0.427,0.0,0.683,49.71,50.1,-25551.84,10478.8,13635.12,-192.3,72.96,-485.54
2014,0.0,0.0,0.427,0.0,0.648,49.81,50.07,-25231.84,10598.8,13527.12,-443.3,56.96,-680.54
2034,0.0,0.0,0.46,0.0,0.719,49.94,50.04,-25243.84,10494.8,13419.12,-455.3,199.96,-567.54
2054,0.0,0.0,0.328,0.0,0.683,50.04,50.02,-25559.84,10682.8,13795.12,-80.3,129.96,-188.54
2074,0.0,0.0,0.361,0.0,0.576,50.15,49.98,-25415.84,10486.8,13763.12,85.7,122.96,-65.54
2094,0.0,0.0,0.427,0.0,0.683,50.23,50.0,-25183.84,10582.8,13607.12,98.7,140.96,-235.54
2114,0.0,0.0,0.493,0.0,0.791,50.32,49.95,-25271.84,10418.8,13391.12,-427.3,-53.04,-281.54
2134,0.0,0.0,0.46,0.0,0.683,50.4,49.96,-25459.84,10710.8,13367.12,-469.3,-95.04,-135.54
2154,0.0,0.0,0.46,0.0,0.648,50.46,49.9,-25519.84,10546.8,13599.12,-350.3,-256.04,101.46
2174,0.0,0.0,0.296,0.0,0.719,50.49,49.91,-25415.84,10770.8,13655.12,-145.3,-148.04,41.46
2194,0.0,0.0,0.197,0.0,0.934,50.54,49.85,-25699.84,10586.8,13567.12,-422.3,-341.04,-34.54
2214,0.0,0.0,0.46,0.0,0.576,50.48,49.76,-25515.84,10578.8,13931.12,-138.3,-763.04,185.46
2234,0.0,0.0,0.328,0.0,0.683,50.44,49.64,-24999.84,10470.8,13923.12,-229.3,-335.04,293.46
2254,0.0,0.0,0.46,0.0,0.648,50.5,49.63,-25167.84,10634.8,13883.12,308.7,294.96,393.46
2274,0.0,0.0,0.46,0.0,0.54,50.61,49.61,-25499.84,10842.8,13887.12,-74.3,513.96,119.46
2294,0.0,0.0,0.46,0.0,0.683,50.69,49.59,-25447.84,10678.8,13615.12,-190.3,154.96,104.46
2314,0.0,0.0,0.46,0.0,1.0,50.74,49.57,-25255.84,10490.8,13687.12,145.7,37.96,512.46
2334,0.0,0.0,0.525,0.0,0.719,50.78,49.56,-25359.84,10614.8,13599.12,-44.3,-77.04,518.46
2354,0.0,0.0,0.361,0.0,0.898,50.81,49.55,-25007.84,10418.8,13539.12,164.7,-29.04,618.46
2374,0.0,0.0,0.0,0.0,0.683,50.86,49.61,-25375.84,10882.8,13571.12,92.7,139.96,301.46
2394,0.0,0.0,0.23,0.0,0.683,50.88,49.63,-25611.84,11106.8,13743.12,-183.3,65.96,-72.54
2415,0.0,0.0,0.493,0.0,0.648,50.89,49.63,-25227.84,10750.8,13471.12,-278.3,-132.04,-288.54
2435,0.0,0.0,0.493,0.0,0.648,50.88,49.53,-25555.84,10818.8,13787.12,-572.3,-259.04,-522.54
2455,0.0,0.0,0.493,0.0,0.683,50.88,49.42,-25071.84,10302.8,13539.12,-305.3,-378.04,-298.54
2474,0.0,0.0,0.296,0.0,0.791,50.87,49.33,-25395.84,10698.8,14019.12,-70.3,-85.04,107.46
2494,0.0,0.0,0.427,0.0,0.719,50.9,49.14,-25607.84,10322.8,14107.12,-108.3,-149.04,347.46
2514,0.0,0.0,0.361,0.0,0.719,50.9,49.22,-24843.84,10786.8,13791.12,606.7,341.96,323.46
2534,0.0,0.0,0.197,0.0,0.683,50.95,49.22,-25607.84,11166.8,13943.12,-143.3,475.96,-127.54
2554,0.0,0.0,0.361,0.0,0.898,50.98,49.07,-25615.84,10610.8,13807.12,-619.3,-84.04,-216.54
2574,0.0,0.0,0.328,0.0,0.683,50.96,49.01,-25415.84,10610.8,13799.12,-70.3,-343.04,155.46
2594,0.0,0.0,0.328,0.0,0.648,50.89,48.96,-25307.84,10982.8,13739.12,-533.3,-346.04,-94.54
2615,0.0,0.0,0.46,0.0,0.576,50.93,48.93,-26023.84,10966.8,13763.12,-335.3,-160.04,-198.54
2634,0.0,0.0,0.427,0.0,0.683,50.9,48.89,-25187.84,10718.8,13791.12,-94.3,-174.04,-171.54
2654,0.0,0.0,0.394,0.0,0.648,50.9,48.76,-25155.84,10570.8,13903.12,-326.3,44.96,-252.54
2674,0.0,0.0,0.427,0.0,0.075,50.98,48.6,-25551.84,10330.8,13787.12,-388.3,92.96,-263.54
2694,0.0,0.0,0.493,0.0,0.648,50.99,48.58,-25535.84,10606.8,13727.12,50.7,-241.04,136.46
2714,0.0,0.0,0.361,0.0,0.683,50.91,48.54,-25407.84,10858.8,13915.12,-94.3,-468.04,145.46
2734,0.0,0.0,0.328,0.0,0.683,50.87,48.52,-25007.84,10650.8,13683.12,-78.3,-228.04,29.46
2754,0.0,0.0,0.46,0.0,0.683,50.87,48.42,-25415.84,10662.8,14023.12,-131.3,10.96,-76.54
2774,0.0,0.0,0.427,0.0,0.683,50.87,48.35,-25487.84,10706.8,13959.12,-41.3,-101.04,-69.54
2795,0.0,0.0,0.525,0.0,0.648,50.86,48.24,-25251.84,10550.8,13851.12,-327.3,-168.04,-105.54
2814,0.0,0.0,0.394,0.0,0.683,50.87,48.09,-25423.84,10374.8,13811.12,-418.3,-274.04,116.46
2834,0.0,0.0,0.525,0.0,0.791,50.84,47.98,-25459.84,10574.8,14003.12,-144.3,-296.04,408.46
2854,0.0,0.0,0.394,0.0,0.791,50.82,47.94,-25475.84,10678.8,14011.12,149.7,-225.04,379.46
2874,0.0,0.0,0.525,0.0,0.648,50.77,47.85,-25411.84,10722.8,14179.12,-34.3,-204.04,59.46
2894,0.0,0.0,0.525,0.0,0.719,50.75,47.76,-25143.84,10694.8,14019.12,-203.3,32.96,-508.54
2914,0.0,0.0,0.525,0.0,0.719,50.79,47.62,-25539.84,10518.8,14039.12,-274.3,52.96,-318.54
2934,0.0,0.0,0.525,0.0,0.648,50.81,47.49,-25327.84,10234.8,13899.12,-82.3,-183.04,93.46
2954,0.0,0.0,0.328,0.0,0.648,50.76,47.36,-25159.84,10522.8,14119.12,-157.3,-196.04,274.46
2974,0.0,0.0,0.361,0.0,0.719,50.75,47.24,-25167.84,10302.8,14039.12,20.7,-89.04,412.46
2994,0.0,0.0,0.328,0.0,0.791,50.79,47.23,-25383.84,10790.8,13951.12,75.7,266.96,309.46
