timestamp,flex_1,flex_2,flex_3,flex_4,flex_5,kalman_pitch,kalman_roll,acc_x,acc_y,acc_z,gyro_x,gyro_y,gyro_z
0,1.0,0.0,0.455,1.0,0.771,-1.67,62.28,-452.4,5209.52,19964.0,3234.04,-587.32,1446.5
19,1.0,0.0,0.636,1.0,0.146,-20.0,35.07,-744.4,5401.52,19968.0,3360.04,-846.32,1664.5
39,1.0,0.0,0.0,1.0,0.458,-28.9,23.19,-440.4,6013.52,20064.0,2360.04,-998.32,1278.5
59,1.0,0.0,0.0,1.0,1.0,-34.14,16.58,-512.4,6433.52,20148.0,1098.04,-883.32,813.5
79,1.0,0.0,0.091,1.0,0.0,-37.57,11.85,-608.4,6093.52,20292.0,1232.04,-1088.32,644.5
99,1.0,0.0,0.0,1.0,0.771,-39.94,7.84,-924.4,5089.52,20408.0,2845.04,-1586.32,1235.5
119,1.0,0.0,0.0,1.0,0.667,-42.07,5.64,-700.4,6077.52,20360.0,4034.04,-2474.32,1402.5
139,1.0,0.0,0.0,1.0,0.771,-44.14,4.65,-92.4,7345.52,19796.0,3289.04,-2055.32,803.5
159,1.0,0.0,0.0,1.0,0.0,-45.51,3.17,-516.4,6529.52,20312.0,2122.04,-1314.32,202.5
179,1.0,0.0,0.0,1.0,0.458,-46.88,1.43,-376.4,6169.52,19780.0,248.04,-1437.32,-30.5
199,1.0,0.0,0.636,1.0,0.146,-48.07,-0.31,-512.4,5889.52,19976.0,-419.96,-1982.32,-167.5
219,1.0,0.0,0.0,1.0,1.0,-49.25,-1.93,-512.4,5733.52,19940.0,-408.96,-2756.32,-147.5
239,1.0,0.0,0.0,1.0,0.771,-50.56,-3.21,-456.4,6169.52,19736.0,-541.96,-3983.32,-313.5
259,0.0,0.0,0.091,1.0,0.563,-51.91,-4.42,-4.4,5953.52,20116.0,-373.96,-5152.32,-465.5
279,0.0,0.0,0.818,1.0,0.458,-53.48,-5.49,-408.4,6293.52,19524.0,-860.96,-6924.32,-336.5
299,0.0,0.0,0.0,1.0,0.354,-55.31,-6.86,555.6,5933.52,19044.0,-2289.96,-7929.32,-993.5
319,0.0,0.0,0.0,1.0,0.875,-57.1,-8.29,135.6,5713.52,18784.0,-2613.96,-8642.32,-1889.5
339,0.0,0.0,0.0,1.0,0.667,-58.1,-9.3,567.6,5565.52,19676.0,-435.96,-4859.32,163.5
359,1.0,0.0,0.0,1.0,0.0,-58.6,-10.15,-172.4,5013.52,20280.0,1279.04,-3384.32,2002.5
379,1.0,0.0,0.0,1.0,0.458,-59.05,-10.68,291.6,5537.52,20212.0,1928.04,-2584.32,2135.5
399,0.73,0.0,1.0,1.0,0.667,-59.54,-11.6,-36.4,3769.52,20740.0,2641.04,-4532.32,2449.5
419,1.0,0.0,0.0,1.0,0.667,-60.22,-11.98,-532.4,4125.52,20108.0,5734.04,-5719.32,1731.5
439,0.0,0.0,0.0,1.0,0.0,-60.91,-10.94,967.6,6845.52,20408.0,9033.04,-4575.32,446.5
459,0.0,0.0,0.0,1.0,0.875,-61.15,-9.25,2151.6,8413.52,19740.0,10119.04,-32.32,1224.5
479,0.0,0.0,0.636,1.0,1.0,-60.67,-8.55,1191.6,5673.52,20884.0,10193.04,2668.68,2088.5
499,0.0,0.0,0.818,1.0,0.563,-59.54,-7.59,859.6,5177.52,22056.0,13022.04,5850.68,2364.5
519,0.0,0.0,0.0,1.0,1.0,-58.22,-6.34,1507.6,4953.52,22636.0,15577.04,7591.68,1766.5
539,0.0,0.0,0.0,1.0,1.0,-56.71,-4.21,1019.6,10061.52,22668.0,12805.04,8895.68,1562.5
559,0.0,0.0,0.0,1.0,0.875,-54.94,-2.87,2023.6,9469.52,23628.0,9395.04,11299.68,1901.5
579,0.0,0.0,0.0,1.0,1.0,-52.83,-2.23,1563.6,9133.52,25028.0,5807.04,12983.68,1802.5
599,0.0,0.0,0.455,1.0,1.0,-50.57,-1.96,1927.6,7173.52,25244.0,6494.04,14935.68,2784.5
619,0.0,0.0,0.0,1.0,1.0,-48.27,-1.34,2103.6,7673.52,25612.0,8297.04,16058.68,3019.5
639,0.0,0.0,0.0,1.0,1.0,-45.79,-0.6,2463.6,7601.52,25736.0,9481.04,18356.68,3205.5
659,0.0,0.0,0.0,1.0,1.0,-43.04,0.09,2943.6,8125.52,26908.0,8725.04,20819.68,2847.5
679,0.0,0.0,0.0,1.0,0.667,-40.24,0.05,2411.6,8173.52,27320.0,3832.04,21589.68,2505.5
699,0.0,0.0,0.0,1.0,1.0,-37.0,-0.28,2731.6,7813.52,27772.0,2338.04,25824.68,957.5
719,0.0,0.0,0.0,1.0,1.0,-33.34,-0.57,1563.6,5161.52,27324.0,5948.04,29430.68,990.5
739,0.0,0.0,1.0,1.0,1.0,-29.57,-0.16,615.6,5877.52,28944.0,9707.04,30142.68,-53.5
759,0.0,0.0,0.455,1.0,1.0,-25.82,0.88,363.6,7445.52,28592.0,12333.04,31608.68,-1830.5
779,0.0,0.0,1.0,1.0,1.0,-22.35,1.83,-372.4,8893.52,27116.0,10228.04,31608.68,-3120.5
799,0.0,0.0,0.0,0.418,1.0,-18.78,2.15,-2276.4,6717.52,28088.0,9066.04,31608.68,-3595.5
820,0.0,0.043,1.0,0.519,1.0,-15.24,3.07,-3560.4,8297.52,28328.0,11392.04,31608.68,-3642.5
839,0.0,0.0,0.0,0.589,1.0,-11.89,4.28,-4576.4,8965.52,26776.0,12743.04,31608.68,-4120.5
859,0.916,0.054,0.0,0.438,1.0,-8.57,5.29,-6120.4,8777.52,25900.0,12052.04,31608.68,-4958.5
879,0.978,0.0,0.455,0.539,1.0,-5.11,6.37,-8040.4,9781.52,26008.0,11538.04,31608.68,-5476.5
899,1.0,0.076,0.0,0.428,1.0,-1.58,7.51,-9964.4,9953.52,24192.0,11637.04,31608.68,-5808.5
920,0.978,0.043,0.0,0.817,1.0,2.14,8.82,-11996.4,11105.52,22184.0,10588.04,31608.68,-6170.5
940,1.0,0.043,1.0,0.827,1.0,6.05,10.22,-13536.4,11149.52,20608.0,10710.04,31608.68,-6326.5
960,1.0,0.01,0.091,1.0,1.0,10.33,11.78,-15468.4,11445.52,19396.0,10726.04,31608.68,-6349.5
980,1.0,0.0,0.455,1.0,0.0,15.02,13.56,-16964.4,11453.52,17508.0,10853.04,31608.68,-6373.5
1000,0.978,0.0,0.0,1.0,1.0,19.81,16.12,-17336.4,12201.52,15188.0,11252.04,31608.68,-6397.5
1020,1.0,0.0,0.636,1.0,1.0,24.6,19.25,-18012.4,12849.52,13928.0,11518.04,31242.68,-6799.5
1040,0.916,0.0,0.455,1.0,1.0,29.53,22.12,-19940.4,12293.52,14060.0,12233.04,29550.68,-7345.5
1060,1.0,0.0,0.0,0.054,1.0,34.05,25.38,-21140.4,12789.52,13672.0,13809.04,26888.68,-7395.5
1080,0.978,0.0,0.0,0.16,1.0,38.26,28.9,-21096.4,12437.52,12468.0,13533.04,24797.68,-8003.5
1100,1.0,0.0,0.0,0.256,1.0,42.39,32.46,-22280.4,11929.52,11672.0,12814.04,22663.68,-7980.5
1120,1.0,0.0,0.0,0.302,1.0,46.16,36.92,-23136.4,11713.52,9884.0,11676.04,19689.68,-7733.5
1140,0.854,0.0,0.0,0.281,1.0,49.3,42.15,-23288.4,11877.52,8236.0,10111.04,17369.68,-7412.5
1160,1.0,0.0,0.273,0.251,1.0,52.25,47.56,-24232.4,10713.52,7904.0,8800.04,14656.68,-7266.5
1180,1.0,0.0,0.818,0.17,1.0,54.62,53.45,-25012.4,10137.52,7288.0,8503.04,10967.68,-6738.5
1199,1.0,0.0,0.455,0.216,1.0,56.25,59.77,-25700.4,9957.52,6256.0,8581.04,7383.68,-5954.5
1219,0.916,0.0,0.636,0.286,1.0,57.39,65.92,-25964.4,9937.52,5536.0,7236.04,5298.68,-5101.5
1239,1.0,0.0,0.455,0.468,0.0,58.18,72.36,-27492.4,8729.52,5160.0,5201.04,2183.68,-4558.5
1259,0.916,0.043,0.0,0.362,1.0,58.66,78.89,-28004.4,7989.52,5788.0,4634.04,-1035.32,-4038.5
1279,0.854,0.0,0.0,0.478,1.0,58.81,84.31,-27980.4,9033.52,5792.0,4306.04,-2861.32,-2947.5
1299,1.0,0.0,0.0,0.488,1.0,58.91,89.06,-28116.4,9125.52,6060.0,2266.04,-3638.32,-1780.5
1319,1.0,0.0,0.636,0.478,1.0,59.27,92.58,-29320.4,9241.52,7436.0,426.04,-3786.32,-918.5
1339,1.0,0.0,0.273,0.564,1.0,59.63,95.05,-29844.4,9513.52,8136.0,-355.96,-4315.32,-199.5
1359,0.854,0.0,0.0,0.458,1.0,59.88,96.24,-29944.4,10513.52,8832.0,-380.96,-4329.32,195.5
1379,0.978,0.0,1.0,0.418,1.0,60.12,96.79,-29668.4,11225.52,9304.0,-578.96,-3585.32,422.5
1399,0.916,0.0,0.818,0.493,1.0,60.47,96.54,-29972.4,11409.52,10260.0,-589.96,-2758.32,343.5
1420,0.916,0.0,0.091,0.473,1.0,60.88,96.13,-29952.4,11757.52,10580.0,-370.96,-1703.32,-194.5
1439,0.916,0.0,0.636,0.549,1.0,61.39,95.61,-30120.4,11485.52,10772.0,108.04,-1350.32,-566.5
1459,0.916,0.0,0.818,0.549,1.0,61.81,95.71,-29560.4,12481.52,10132.0,598.04,-610.32,-793.5
1479,0.916,0.0,0.0,0.493,1.0,62.37,95.45,-29396.4,11845.52,10440.0,-114.96,-175.32,-924.5
1499,0.854,0.0,0.0,0.488,1.0,63.07,95.34,-29140.4,11733.52,10104.0,-599.96,773.68,-1124.5
1519,0.916,0.0,1.0,0.468,1.0,63.87,94.75,-29068.4,11097.52,10560.0,-964.96,995.68,-1154.5
1539,0.854,0.0,0.0,0.468,1.0,64.64,94.15,-29384.4,10953.52,10724.0,-72.96,817.68,-740.5
1559,0.73,0.0,0.455,0.504,1.0,65.32,94.06,-29160.4,11313.52,10212.0,123.04,764.68,-327.5
1579,0.73,0.043,0.091,0.493,1.0,65.97,94.32,-28688.4,11425.52,9640.0,-493.96,943.68,-202.5
1599,0.73,0.0,0.818,0.504,1.0,66.6,94.14,-28716.4,11313.52,10132.0,-797.96,919.68,-245.5
1619,0.916,0.076,0.091,0.645,1.0,67.17,93.62,-28892.4,11445.52,10648.0,-568.96,864.68,-309.5
1639,0.916,0.0,0.091,0.509,1.0,67.77,93.02,-28976.4,10985.52,10696.0,-401.96,699.68,-326.5
1659,0.916,0.043,0.0,0.554,1.0,68.35,92.56,-28692.4,11201.52,10576.0,-439.96,1019.68,-340.5
1679,0.854,0.0,0.0,0.493,1.0,68.98,92.31,-28764.4,11037.52,10248.0,-709.96,1245.68,-373.5
1699,0.854,0.0,0.091,0.493,1.0,69.57,91.87,-29048.4,11077.52,10552.0,-415.96,1145.68,-420.5
1719,0.854,0.0,0.091,0.478,1.0,70.12,91.77,-29084.4,11121.52,10128.0,-440.96,1082.68,-497.5
1739,0.854,0.0,0.0,0.433,1.0,70.62,91.71,-29004.4,10941.52,10104.0,-298.96,594.68,-401.5
1759,0.73,0.0,0.636,0.448,1.0,71.05,91.66,-28876.4,10949.52,10124.0,-32.96,346.68,-279.5
1779,0.978,0.0,0.273,0.443,1.0,71.45,91.66,-28812.4,10937.52,10064.0,40.04,262.68,-167.5
1799,0.854,0.0,0.636,0.418,1.0,71.8,91.52,-28868.4,11233.52,10236.0,-148.96,374.68,-161.5
1819,0.916,0.0,0.0,0.438,1.0,72.12,91.38,-28840.4,11193.52,10132.0,-739.96,263.68,-64.5
1839,0.916,0.0,0.455,0.478,1.0,72.48,91.43,-28920.4,10909.52,9856.0,-785.96,136.68,-118.5
1859,0.916,0.0,0.0,0.478,1.0,72.8,91.32,-28860.4,10713.52,10156.0,-49.96,-171.32,-45.5
1879,0.854,0.0,0.818,0.488,0.875,73.05,91.14,-28840.4,10989.52,10320.0,309.04,-212.32,-17.5
1899,0.73,0.0,1.0,0.564,1.0,73.26,91.05,-28864.4,11237.52,10140.0,-319.96,-116.32,62.5
1919,0.668,0.0,1.0,0.63,1.0,73.46,90.91,-28624.4,11349.52,10116.0,-829.96,63.68,127.5
1939,0.668,0.0,0.455,0.605,1.0,73.81,90.55,-28752.4,10693.52,10236.0,-1189.96,254.68,30.5
1959,0.916,0.0,0.0,0.574,0.354,74.08,90.3,-28820.4,10801.52,10352.0,44.04,29.68,115.5
1979,0.854,0.0,0.455,0.549,1.0,74.26,90.13,-28836.4,11329.52,10396.0,279.04,111.68,43.5
1999,0.854,0.0,0.0,0.493,0.25,74.44,90.02,-28856.4,11269.52,10208.0,-153.96,36.68,-1.5
2019,0.854,0.0,0.0,0.468,1.0,74.64,89.99,-28816.4,11101.52,10016.0,-566.96,9.68,-6.5
2039,0.854,0.0,0.0,0.418,1.0,74.85,89.85,-28900.4,11121.52,10124.0,-731.96,137.68,-174.5
2059,0.854,0.0,0.818,0.458,0.771,75.06,89.66,-29000.4,10829.52,10204.0,-454.96,-120.32,-178.5
2079,0.854,0.0,0.0,0.418,1.0,75.18,89.35,-28888.4,11189.52,10508.0,-11.96,-238.32,-65.5
2099,0.606,0.0,1.0,0.418,0.875,75.25,89.18,-28672.4,11417.52,10312.0,-287.96,-174.32,-7.5
2119,0.668,0.0,1.0,0.357,0.875,75.4,89.04,-28824.4,11145.52,10168.0,-556.96,-26.32,-72.5
2139,0.668,0.0,1.0,0.428,1.0,75.54,88.8,-28920.4,11133.52,10404.0,-139.96,-28.32,-58.5
2159,0.668,0.0,0.0,0.418,1.0,75.67,88.53,-28976.4,11361.52,10508.0,5.04,144.68,-149.5
2179,0.854,0.0,0.0,0.443,1.0,75.79,88.14,-29140.4,11229.52,10616.0,-193.96,19.68,-163.5
2199,0.73,0.0,0.091,0.362,1.0,75.93,88.02,-29048.4,10877.52,10220.0,-155.96,-254.32,-191.5
2219,0.854,0.0,0.0,0.256,0.875,76.01,88.21,-28716.4,11437.52,9860.0,-126.96,0.68,-216.5
2239,0.854,0.0,0.818,0.216,0.667,76.22,87.96,-29020.4,10665.52,10336.0,-130.96,61.68,-213.5
2259,0.73,0.0,1.0,0.185,1.0,76.36,87.86,-28912.4,11161.52,10300.0,211.04,227.68,-247.5
2279,0.854,0.0,0.455,0.201,1.0,76.47,87.72,-28940.4,11265.52,10260.0,-400.96,199.68,-208.5
2299,0.543,0.0,0.091,0.125,1.0,76.64,87.54,-28916.4,10961.52,10208.0,-663.96,261.68,-267.5
2320,0.606,0.0,0.0,0.216,1.0,76.79,87.5,-28952.4,11013.52,10044.0,-652.96,199.68,-193.5
2339,0.73,0.0,0.818,0.165,1.0,76.95,87.44,-29024.4,10709.52,10112.0,-275.96,-1.32,-166.5
2359,0.73,0.0,0.0,0.14,1.0,77.05,87.38,-28912.4,10885.52,10260.0,425.04,-152.32,47.5
2379,0.668,0.021,0.0,0.12,0.563,77.09,87.46,-28896.4,11193.52,10032.0,68.04,-186.32,50.5
2399,0.668,0.0,0.0,0.115,1.0,77.16,87.38,-28792.4,11009.52,10140.0,-431.96,-147.32,7.5
2419,0.73,0.0,0.091,0.115,1.0,77.21,87.23,-28588.4,11037.52,10180.0,-669.96,-166.32,-23.5
2439,0.668,0.0,0.0,0.17,0.563,77.25,87.08,-28680.4,11197.52,10184.0,-719.96,-15.32,-182.5
2459,0.854,0.0,0.0,0.069,1.0,77.31,86.71,-28860.4,11149.52,10456.0,-971.96,56.68,-354.5
2479,0.854,0.0,0.0,0.584,1.0,77.39,86.06,-29028.4,10753.52,10804.0,-574.96,-150.32,-323.5
2499,0.854,0.0,0.0,0.685,0.354,77.49,85.74,-28920.4,10797.52,10488.0,-211.96,-62.32,-191.5
2519,0.792,0.0,0.0,0.509,1.0,77.61,85.49,-28860.4,10809.52,10420.0,-198.96,175.68,-123.5
2539,0.854,0.0,0.0,0.822,1.0,77.7,85.22,-28936.4,10929.52,10492.0,-142.96,132.68,-43.5
2559,0.73,0.0,0.091,0.589,0.667,77.76,85.09,-28904.4,11041.52,10304.0,-312.96,77.68,-87.5
2579,0.668,0.01,0.0,0.817,1.0,77.84,84.81,-28908.4,10985.52,10512.0,-208.96,150.68,-92.5
2599,0.668,0.01,0.636,0.463,1.0,77.9,84.67,-28836.4,10985.52,10360.0,-127.96,95.68,-42.5
2619,0.668,0.0,1.0,0.493,1.0,77.96,84.57,-28964.4,11081.52,10312.0,-193.96,177.68,-104.5
2639,0.668,0.0,0.0,0.14,1.0,77.98,84.41,-28768.4,11177.52,10380.0,-324.96,101.68,-132.5
2660,0.73,0.0,0.818,0.11,1.0,78.0,84.18,-28916.4,11093.52,10476.0,-266.96,-17.32,-89.5
2679,0.854,0.0,0.818,0.14,1.0,78.01,84.08,-29000.4,11101.52,10312.0,-273.96,-78.32,-14.5
2699,0.792,0.0,0.818,0.155,1.0,78.05,83.95,-28836.4,11077.52,10368.0,-239.96,122.68,38.5
2719,0.73,0.0,0.0,0.14,1.0,78.1,83.71,-28952.4,11021.52,10528.0,-129.96,174.68,102.5
2739,0.73,0.0,0.0,0.17,1.0,78.15,83.43,-29028.4,10989.52,10588.0,-84.96,170.68,87.5
2759,0.668,0.0,0.091,0.226,1.0,78.17,83.21,-28804.4,11141.52,10552.0,-63.96,183.68,71.5
2779,0.668,0.0,0.0,0.327,0.875,78.17,83.03,-28840.4,11129.52,10532.0,92.04,98.68,98.5
2799,0.854,0.0,1.0,0.246,1.0,78.19,82.83,-28824.4,11089.52,10556.0,65.04,179.68,33.5
2819,0.792,0.0,0.0,0.266,1.0,78.2,82.63,-28816.4,11113.52,10568.0,71.04,114.68,-26.5
2839,0.792,0.0,0.0,0.302,1.0,78.21,82.54,-28944.4,11065.52,10416.0,57.04,26.68,-47.5
2859,0.73,0.0,0.0,0.256,1.0,78.21,82.54,-28808.4,11057.52,10268.0,-78.96,16.68,-97.5
2879,0.854,0.01,0.636,0.307,1.0,78.23,82.52,-28812.4,10889.52,10264.0,-77.96,-103.32,-11.5
2899,0.668,0.0,0.0,0.327,1.0,78.26,82.38,-28804.4,10781.52,10432.0,61.04,-23.32,102.5
2919,0.668,0.0,0.0,0.317,1.0,78.27,82.21,-28832.4,11121.52,10524.0,12.04,179.68,72.5
2939,0.668,0.0,1.0,0.332,1.0,78.26,81.87,-28984.4,11193.52,10764.0,-141.96,180.68,74.5
2959,0.668,0.0,0.0,0.317,1.0,78.26,81.74,-28940.4,11017.52,10456.0,-144.96,17.68,21.5
2979,0.854,0.0,0.818,0.337,0.458,78.26,81.71,-28832.4,11197.52,10372.0,43.04,202.68,4.5
