timestamp,flex_1,flex_2,flex_3,flex_4,flex_5,kalman_pitch,kalman_roll,acc_x,acc_y,acc_z,gyro_x,gyro_y,gyro_z
0,0.667,0.0,0.004,0.0,1.0,47.54,64.87,4473.6,503.76,11394.32,2555.28,5919.94,1896.06
20,0.832,0.042,0.057,0.0,0.359,2.45,21.26,3949.6,907.76,12602.32,3169.28,7857.94,1064.06
40,0.835,0.042,1.0,0.0,0.388,-14.41,5.73,2997.6,1583.76,13126.32,2828.28,7729.94,50.06
60,0.826,0.0,0.0,0.101,0.533,-23.41,-1.89,2485.6,2163.76,13586.32,489.28,4404.94,-1392.94
80,0.886,0.277,0.875,0.0,0.0,-29.56,-7.45,2261.6,1775.76,13714.32,-2504.72,-1318.06,-2618.94
101,0.607,0.264,0.875,0.095,0.112,-34.71,-14.13,3333.6,-928.24,12610.32,-3367.72,-6023.06,-1702.94
120,0.66,0.251,1.0,0.772,0.243,-38.83,-19.29,3869.6,-1944.24,13146.32,-2082.72,-8454.06,-623.94
140,0.287,0.0,1.0,0.181,0.679,-43.32,-23.78,3181.6,-392.24,10566.32,-1025.72,-10374.06,-2774.94
160,0.222,0.028,0.0,0.0,0.388,-47.87,-27.16,3869.6,671.76,10074.32,-1145.72,-11673.06,-4549.94
181,0.187,0.0,0.162,0.0,1.0,-50.85,-30.19,3045.6,-448.24,11414.32,-3284.72,-9962.06,-3933.94
201,0.672,0.087,1.0,0.083,0.417,-52.76,-33.95,2837.6,-3672.24,11570.32,-4047.72,-9628.06,-1567.94
220,0.84,0.0,0.69,0.479,0.229,-54.39,-37.78,3465.6,-4596.24,10290.32,-2864.72,-7864.06,1867.06
240,0.867,0.035,0.796,0.0,0.142,-55.75,-41.56,4397.6,-4940.24,9586.32,-3334.72,-5577.06,4938.06
260,0.926,0.087,0.373,0.187,0.461,-56.3,-44.46,3901.6,-6444.24,12466.32,-4572.72,-4455.06,8381.06
281,0.593,0.0,0.479,0.0,1.0,-56.52,-47.44,3761.6,-7496.24,13306.32,-7292.72,-3778.06,11517.06
301,0.649,0.107,1.0,0.072,0.301,-56.53,-51.05,4777.6,-9240.24,12458.32,-10484.72,-2137.06,13820.06
321,0.767,0.381,0.716,0.009,0.142,-56.11,-54.76,4537.6,-10252.24,12542.32,-12532.72,-98.06,15453.06
341,0.502,0.159,0.347,0.0,0.388,-55.33,-58.6,4021.6,-12036.24,12654.32,-14450.72,883.94,17595.06
361,0.516,0.0,1.0,0.347,0.0,-54.4,-62.34,4305.6,-15416.24,13142.32,-14495.72,538.94,19760.06
381,0.348,0.094,0.0,0.0,0.0,-53.72,-65.44,5109.6,-14976.24,12906.32,-11806.72,207.94,22787.06
400,0.341,0.1,1.0,0.0,0.0,-53.15,-68.53,4957.6,-14484.24,11274.32,-11515.72,37.94,26122.06
421,0.401,0.198,0.0,0.009,0.098,-52.58,-71.84,5829.6,-15404.24,9790.32,-12376.72,680.94,28746.06
441,0.262,0.0,1.0,0.0,0.388,-51.67,-74.67,4189.6,-17284.24,10818.32,-11256.72,567.94,31110.06
461,0.289,0.087,1.0,0.25,0.229,-50.86,-76.75,3609.6,-18736.24,11166.32,-7308.72,-1054.06,32934.06
481,0.301,0.323,0.637,0.0,0.316,-50.39,-78.17,4089.6,-17240.24,9666.32,-2473.72,-2162.06,32934.06
501,0.299,0.028,0.875,0.0,0.461,-49.93,-79.44,3929.6,-15964.24,8642.32,-1202.72,-1537.06,32934.06
520,0.299,0.133,1.0,0.0,0.649,-48.43,-80.61,-558.4,-16204.24,9602.32,-2149.72,1125.94,32934.06
540,0.259,0.0,0.848,0.0,0.359,-47.37,-82.56,905.6,-17028.24,8802.32,-7131.72,-412.06,32934.06
560,0.278,0.0,0.453,0.181,0.853,-46.1,-84.33,-158.4,-18764.24,7502.32,-5176.72,-394.06,32934.06
581,0.352,0.192,0.136,0.0,0.882,-44.57,-85.69,-1062.4,-17380.24,6766.32,-2424.72,1337.94,32934.06
600,0.322,0.375,0.0,0.221,0.127,-43.03,-87.21,-2858.4,-14904.24,7778.32,-5831.72,676.94,32934.06
621,0.352,0.055,0.796,0.0,0.0,-41.54,-89.18,-4338.4,-16484.24,6398.32,-7865.72,-1448.06,32934.06
641,0.296,0.172,1.0,0.0,0.62,-39.89,-90.7,-4786.4,-16272.24,5622.32,-4742.72,-457.06,32934.06
660,0.557,0.0,0.479,0.0,0.156,-37.8,-91.07,-6810.4,-12856.24,6882.32,510.28,1203.94,32934.06
680,0.406,0.061,0.162,0.0,1.0,-35.87,-91.74,-7202.4,-10840.24,5658.32,-313.72,626.94,32934.06
700,0.511,0.0,1.0,0.009,1.0,-33.45,-92.04,-9674.4,-11036.24,6578.32,452.28,677.94,32934.06
720,0.726,0.0,0.532,0.0,0.287,-30.65,-92.01,-11758.4,-10008.24,6742.32,2006.28,572.94,32934.06
740,0.541,0.035,0.479,0.0,0.0,-27.8,-91.53,-11510.4,-7524.24,6638.32,4719.28,1646.94,32934.06
760,0.511,0.0,0.136,0.175,1.0,-23.72,-90.44,-13822.4,-3788.24,7522.32,5318.28,4411.94,32934.06
780,0.511,0.126,0.136,0.0,1.0,-20.4,-90.28,-11902.4,-5464.24,5902.32,3797.28,5744.94,31999.06
800,0.381,0.0,0.558,0.0,0.301,-16.91,-90.02,-12782.4,-4528.24,5922.32,4209.28,5538.94,28726.06
820,0.443,0.002,0.0,0.0,0.112,-12.14,-90.4,-15786.4,-1136.24,4842.32,2196.28,4710.94,30427.06
840,0.399,0.12,0.0,0.02,0.142,-8.04,-91.05,-15030.4,-2300.24,5310.32,-1272.72,5191.94,30970.06
860,0.29,0.009,1.0,0.095,0.156,-3.47,-91.14,-17118.4,-2180.24,5546.32,1484.28,5566.94,27624.06
880,0.257,0.068,0.215,0.089,0.62,0.7,-91.11,-16626.4,-1424.24,4630.32,5133.28,4045.94,27375.06
900,0.397,0.0,0.136,0.0,0.0,4.98,-90.52,-15062.4,1375.76,4638.32,8939.28,3663.94,26180.06
920,0.432,0.316,1.0,0.0,0.156,9.64,-92.32,-13214.4,4139.76,3190.32,8248.28,4888.94,25080.06
940,0.444,0.028,1.0,0.072,0.446,14.45,-96.78,-13758.4,4943.76,2202.32,1881.28,6859.94,22843.06
960,0.55,0.0,0.532,0.0,1.0,19.19,-100.65,-14538.4,4167.76,2270.32,-1569.72,7564.94,22569.06
980,0.595,0.022,1.0,0.0,0.0,23.86,-104.18,-15290.4,4223.76,2250.32,-136.72,7124.94,22839.06
1000,0.334,0.225,1.0,0.066,0.882,28.71,-108.71,-14942.4,5815.76,2870.32,3631.28,5552.94,22654.06
1020,0.303,0.414,1.0,0.015,0.0,32.11,-92.8,-13906.4,7935.76,2294.32,5464.28,4059.94,22054.06
1040,0.399,0.225,0.532,0.261,0.112,34.94,-76.39,-13602.4,6943.76,1614.32,3681.28,3269.94,19869.06
1060,0.31,0.192,0.0,0.278,0.112,35.66,-60.74,-11406.4,6807.76,1418.32,2213.28,283.94,17823.06
1080,0.31,0.257,0.875,0.296,0.62,36.02,-46.19,-11626.4,7575.76,566.32,3049.28,-253.06,17984.06
1100,0.402,0.368,0.453,0.267,0.127,35.69,-52.66,-10818.4,5351.76,358.32,6171.28,-522.06,18163.06
1120,0.411,0.597,0.69,0.473,0.679,35.07,-56.32,-10182.4,1443.76,-597.68,10461.28,2120.94,17667.06
1140,0.55,0.852,0.0,0.588,0.635,35.2,-61.68,-11854.4,4923.76,-3041.68,11892.28,2261.94,14029.06
1160,0.597,0.754,0.69,0.152,0.388,35.6,-46.39,-15914.4,8551.76,-8969.68,7412.28,501.94,8707.06
1180,0.709,0.989,0.268,0.657,1.0,35.96,-54.22,-21470.4,5463.76,-9073.68,81.28,-6500.06,5128.06
1201,0.644,0.715,0.426,0.342,0.809,35.75,-41.46,-26638.4,12775.76,-3221.68,5946.28,-18283.06,3280.06
1221,0.606,0.689,0.453,0.342,0.635,33.19,-29.66,-27258.4,25683.76,4646.32,24747.28,-27678.06,8305.06
1241,0.616,0.937,0.0,0.898,0.345,28.36,-17.65,-16314.4,39022.76,8542.32,33108.28,-31692.06,4517.06
1260,0.812,1.0,0.0,0.737,0.229,24.64,-6.69,-9618.4,39022.76,9130.32,30562.28,-21098.06,-9013.94
1280,0.723,0.852,1.0,0.743,0.533,24.78,0.96,-19114.4,39022.76,9618.32,11781.28,-2233.06,-26786.94
1300,0.677,0.832,1.0,0.777,0.374,29.03,7.81,-35846.4,21111.76,18.32,-1877.72,8548.94,-30506.94
1320,0.644,0.898,1.0,0.743,0.475,33.25,-3.02,-42486.4,3599.76,-8137.68,-9342.72,6181.94,-18964.94
1341,0.681,0.747,1.0,0.256,0.374,35.99,-12.08,-42486.4,2427.76,-6721.68,-3235.72,-3327.06,-5106.94
1360,0.663,1.0,0.268,0.347,0.054,38.09,-1.39,-41774.4,8059.76,-717.68,125.28,-11005.06,7642.06
1380,0.705,0.793,1.0,0.823,0.446,39.27,4.15,-28774.4,13171.76,4630.32,-3406.72,-12769.06,14955.06
1400,0.588,0.597,0.743,0.743,0.853,39.57,8.61,-21150.4,18915.76,8250.32,-2939.72,-6959.06,14431.06
1420,0.583,0.826,1.0,0.56,0.287,40.07,12.94,-17694.4,18359.76,7870.32,-2839.72,-1977.06,10802.06
1440,0.621,0.845,0.453,0.6,0.896,41.59,18.19,-18074.4,14435.76,4490.32,-1437.72,70.94,7042.06
1460,0.662,0.852,0.769,0.892,0.809,43.32,24.93,-19010.4,12343.76,1762.32,985.28,-1270.06,5670.06
1480,0.634,0.551,0.0,0.496,0.316,45.1,32.2,-19094.4,11207.76,434.32,766.28,-768.06,3580.06
1500,0.614,0.787,1.0,1.0,0.0,47.16,38.18,-20302.4,11411.76,1662.32,-1842.72,-298.06,2129.06
1520,0.613,0.76,1.0,0.468,1.0,49.04,42.83,-20438.4,11715.76,3478.32,-2211.72,-1500.06,1485.06
1540,0.69,0.46,0.796,0.376,0.519,50.09,46.72,-19982.4,14131.76,5238.32,280.28,-2706.06,465.06
1560,0.718,0.63,0.796,0.387,0.142,51.21,50.44,-20738.4,14599.76,5266.32,314.28,-2002.06,-880.94
1580,0.586,0.78,1.0,0.743,1.0,52.81,53.52,-22158.4,14007.76,5742.32,-1454.72,-159.06,-2353.94
1600,0.648,0.8,0.0,0.376,0.562,54.91,56.25,-23950.4,12627.76,5818.32,-1863.72,976.94,-2500.94
1620,0.737,0.689,0.453,0.743,0.679,57.05,59.41,-25026.4,12619.76,5222.32,-62.72,1234.94,-2097.94
1640,0.62,0.61,1.0,0.657,0.562,58.97,62.92,-25462.4,12867.76,4510.32,1068.28,572.94,-1053.94
1660,0.572,0.649,1.0,0.691,0.0,60.56,66.38,-25022.4,13747.76,4162.32,869.28,170.94,-352.94
1680,0.744,0.584,0.321,0.56,0.0,62.07,69.31,-24662.4,13987.76,4282.32,-1253.72,649.94,-307.94
1700,0.644,0.584,1.0,0.611,0.0,63.52,71.92,-24734.4,13443.76,4654.32,-1483.72,169.94,201.06
1720,0.634,0.545,1.0,0.433,0.853,64.54,74.75,-23766.4,13863.76,4602.32,723.28,-1268.06,460.06
1740,0.606,0.675,0.0,0.657,0.0,65.14,77.4,-23082.4,15443.76,4842.32,1046.28,-1450.06,-63.94
1760,0.698,0.564,0.373,0.548,1.0,66.24,79.65,-23350.4,13975.76,4522.32,-1632.72,399.94,-945.94
1780,0.618,1.0,1.0,0.066,0.171,67.66,81.85,-24570.4,12695.76,4518.32,-1266.72,828.94,-739.94
1800,0.635,0.858,1.0,0.571,0.388,68.6,84.46,-24278.4,13815.76,4190.32,1495.28,-565.06,-20.94
1820,0.476,0.76,1.0,0.359,0.0,69.21,86.86,-23690.4,14671.76,4046.32,715.28,-1023.06,72.06
1840,0.551,0.865,1.0,0.772,0.562,70.09,88.78,-23862.4,13967.76,4150.32,-1716.72,147.94,-269.94
1860,0.576,0.662,1.0,0.41,0.142,71.03,90.38,-24426.4,13551.76,4766.32,-1454.72,163.94,83.06
1880,0.606,0.793,0.0,0.548,0.461,71.72,92.03,-23838.4,14207.76,5066.32,107.28,-165.06,213.06
1900,0.548,0.447,0.268,0.387,0.461,72.33,93.55,-23506.4,14439.76,4946.32,-444.72,122.94,311.06
1920,0.55,0.558,1.0,0.909,0.461,73.09,94.75,-23498.4,13971.76,5142.32,-1500.72,904.94,109.06
1940,0.649,0.715,1.0,0.749,1.0,73.86,95.89,-23802.4,13447.76,5430.32,-499.72,639.94,87.06
1960,0.695,0.532,0.479,0.376,0.0,74.36,97.31,-23498.4,13467.76,5314.32,1551.28,-735.06,251.06
1980,0.437,0.349,1.0,0.0,0.388,74.52,98.99,-23090.4,14599.76,4666.32,2049.28,-1381.06,-12.94
2000,0.518,0.597,0.0,0.657,1.0,75.03,100.22,-23550.4,13751.76,4646.32,-438.72,2.94,-837.94
2020,0.606,0.734,1.0,0.502,0.0,75.82,101.17,-24398.4,12735.76,4710.32,-1637.72,484.94,-947.94
2040,0.527,0.479,1.0,0.009,0.591,76.32,102.43,-24610.4,12975.76,4426.32,13.28,-933.06,-105.94
2060,0.499,0.76,0.0,0.56,0.054,76.45,103.92,-23594.4,13667.76,4086.32,1312.28,-1939.06,451.06
2080,0.488,0.551,0.453,0.743,1.0,76.44,105.05,-23214.4,14767.76,4422.32,265.28,-1340.06,357.06
2100,0.644,0.414,0.637,0.56,0.185,76.88,105.48,-23838.4,13587.76,5274.32,-1742.72,248.94,-222.94
2120,0.716,0.564,1.0,1.0,0.0,77.44,106.08,-24318.4,12939.76,5058.32,-821.72,248.94,-55.94
2140,0.69,0.584,0.453,1.0,0.708,77.73,106.93,-24322.4,13479.76,5030.32,1076.28,-734.06,468.06
2160,0.669,0.734,1.0,0.192,0.577,77.63,107.72,-23082.4,14759.76,5202.32,1287.28,-1085.06,685.06
2180,0.555,0.721,0.0,0.353,0.0,77.71,108.23,-22686.4,14483.76,5090.32,-493.72,192.94,-116.94
2200,0.662,0.492,1.0,0.542,0.649,78.16,108.62,-23778.4,13315.76,5250.32,-344.72,908.94,-737.94
2220,0.569,0.486,1.0,0.531,1.0,78.46,109.43,-23818.4,13423.76,4702.32,1249.28,227.94,-729.94
2240,0.693,0.479,0.268,0.594,0.156,78.7,110.28,-24186.4,13523.76,4306.32,854.28,-123.06,-464.94
2260,0.614,0.479,1.0,0.175,0.0,79.02,110.99,-24362.4,13223.76,4022.32,-510.72,207.94,-439.94
2280,0.495,0.597,1.0,0.663,0.142,79.33,111.46,-24258.4,13339.76,4366.32,-878.72,478.94,-284.94
2300,0.592,0.702,1.0,0.37,0.504,79.53,111.87,-24398.4,13619.76,4750.32,-13.72,176.94,-72.94
2320,0.469,0.61,1.0,0.296,0.519,79.52,112.41,-24074.4,14351.76,4514.32,616.28,-203.06,-43.94
2340,0.555,0.519,0.875,0.812,0.127,79.47,112.81,-23550.4,14583.76,4302.32,-571.72,273.94,-257.94
2360,0.627,0.571,0.0,0.927,1.0,79.81,112.9,-23906.4,13547.76,4350.32,-2387.72,1623.94,-544.94
2380,0.474,0.95,1.0,0.72,0.708,80.3,112.99,-24454.4,12671.76,4498.32,-1960.72,1731.94,-181.94
2400,0.6,0.571,1.0,0.686,0.548,80.46,113.45,-24074.4,13271.76,4178.32,-57.72,486.94,432.06
2420,0.443,0.0,0.109,0.313,1.0,80.42,113.77,-23734.4,13487.76,4650.32,594.28,-311.06,688.06
2440,0.611,0.747,1.0,0.21,0.0,80.27,113.98,-23174.4,13811.76,4862.32,568.28,-260.06,592.06
2460,0.55,0.806,1.0,0.468,1.0,80.23,114.0,-23330.4,13671.76,4974.32,-171.72,318.94,296.06
2480,0.565,0.447,0.637,0.244,0.185,80.25,113.93,-23750.4,13543.76,5150.32,-185.72,432.94,124.06
2500,0.481,0.591,0.875,0.416,0.054,80.16,113.83,-23638.4,13623.76,5294.32,144.28,-28.06,75.06
2520,0.642,0.146,0.0,0.462,0.098,79.96,113.92,-23298.4,13671.76,4998.32,769.28,-512.06,-52.94
2540,0.642,0.957,1.0,0.479,1.0,79.69,114.23,-23198.4,14127.76,4378.32,871.28,-392.06,-376.94
2560,0.614,1.0,0.268,0.0,0.0,79.6,114.43,-24058.4,13783.76,4270.32,95.28,28.94,-646.94
2580,0.592,0.375,0.268,0.531,0.548,79.56,114.66,-24374.4,13499.76,4118.32,56.28,-97.06,-670.94
2600,0.683,0.309,1.0,0.519,0.301,79.56,115.08,-24346.4,12991.76,3738.32,397.28,-167.06,-592.94
2620,0.627,0.76,1.0,0.565,0.911,79.55,115.48,-24270.4,13267.76,3562.32,86.28,190.94,-678.94
2640,0.516,0.937,0.822,0.777,0.533,79.7,115.37,-24434.4,12923.76,4062.32,-1878.72,881.94,-684.94
2660,0.558,0.545,1.0,0.095,0.359,79.73,114.98,-24566.4,12907.76,4806.32,-1652.72,109.94,178.06
2680,0.719,0.689,1.0,0.56,0.171,79.01,114.84,-22978.4,14959.76,5262.32,1032.28,-1920.06,883.06
2700,0.427,0.675,1.0,0.657,0.0,77.87,114.77,-21382.4,16671.76,5642.32,2097.28,-2041.06,11.06
2720,0.551,0.662,1.0,0.0,0.0,77.42,114.44,-22262.4,15191.76,5186.32,-214.72,360.94,-1825.94
2740,0.707,0.551,0.0,0.347,0.345,77.73,114.23,-24970.4,12551.76,4494.32,-852.72,1198.94,-2140.94
2760,0.74,1.0,1.0,0.29,0.577,77.85,114.88,-25554.4,11831.76,3486.32,1567.28,-861.06,-986.94
2780,0.688,0.492,0.0,0.387,0.229,77.65,115.5,-25154.4,12571.76,3446.32,2055.28,-2014.06,117.06
2800,0.567,0.584,0.0,0.548,0.0,77.39,115.35,-24454.4,13527.76,4354.32,-175.72,-1138.06,499.06
2820,0.644,0.577,1.0,0.473,0.708,77.32,114.49,-24290.4,13439.76,5386.32,-2228.72,94.94,458.06
2840,0.543,0.878,1.0,0.588,0.388,77.09,113.72,-23662.4,13783.76,5734.32,-973.72,-130.06,495.06
2860,0.606,0.532,1.0,0.192,1.0,76.77,113.29,-23398.4,13891.76,5374.32,399.28,-568.06,467.06
2880,0.637,0.898,1.0,0.657,1.0,76.47,113.0,-23378.4,13959.76,5058.32,663.28,-336.06,110.06
2900,0.693,0.166,1.0,0.416,0.156,76.4,112.63,-23734.4,13523.76,4846.32,-441.72,521.94,-227.94
2920,0.73,0.669,1.0,0.112,0.0,76.52,112.38,-24302.4,12579.76,4342.32,-954.72,580.94,-163.94
2940,0.753,0.63,0.0,0.083,1.0,76.45,112.34,-24238.4,12831.76,4374.32,635.28,-304.06,-7.94
2960,0.723,0.682,1.0,0.577,0.388,76.09,112.4,-23502.4,13655.76,4274.32,1249.28,-1008.06,6.06
2980,0.693,0.61,0.532,0.313,0.0,75.74,112.26,-23506.4,13743.76,4374.32,262.28,-841.06,-398.94
