timestamp,flex_1,flex_2,flex_3,flex_4,flex_5,kalman_pitch,kalman_roll,acc_x,acc_y,acc_z,gyro_x,gyro_y,gyro_z
0,0.312,0.264,0.328,0.0,0.0,23.48,18.33,472.48,-2628.72,15761.6,1738.04,1408.84,2222.44
20,0.485,0.0,0.0,0.0,0.701,3.78,-0.22,300.48,-3112.72,16157.6,2042.04,3472.84,3012.44
40,0.456,1.0,0.075,0.0,0.0,-5.23,-9.02,-567.52,-3236.72,18041.6,3178.04,5734.84,3639.44
60,0.493,0.379,0.0,0.326,0.0,-9.9,-12.8,-2559.52,-1484.72,19637.6,3373.04,3459.84,3449.44
80,0.443,0.112,0.0,0.184,0.0,-12.85,-14.25,-4331.52,103.28,20681.6,3475.04,-1762.16,3311.44
100,0.42,0.137,0.0,0.0,0.0,-16.74,-16.06,-1815.52,-836.72,20249.6,2019.04,-6283.16,1599.44
120,0.519,0.155,0.0,0.306,0.0,-18.86,-17.67,-2575.52,-3616.72,25009.6,1913.04,-7003.16,348.44
140,0.522,0.118,1.0,0.285,0.015,-20.57,-18.6,-3219.52,-5544.72,29473.6,4175.04,-10477.16,76.44
160,0.519,0.403,0.0,0.366,0.0,-23.15,-18.28,584.48,-4292.72,27337.6,11794.04,-10504.16,2383.44
180,0.569,0.064,0.03,0.0,0.0,-24.68,-15.62,2444.48,-2088.72,26225.6,25742.04,-950.16,5879.44
200,0.591,0.585,0.952,1.0,0.0,-24.39,-11.78,824.48,-1928.72,30713.6,33136.04,6089.84,4844.44
220,0.373,0.0,0.0,0.0,0.0,-24.63,-7.72,2368.48,583.28,32261.6,33136.04,3648.84,4694.44
240,0.333,0.512,0.149,0.136,0.0,-25.8,-2.88,5252.48,6651.28,28313.6,33136.04,2404.84,5276.44
260,0.408,0.506,1.0,0.366,0.0,-26.21,2.47,6500.48,11523.28,29265.6,33136.04,6951.84,792.44
280,0.484,0.367,0.0,0.867,0.0,-25.84,7.79,8244.48,14563.28,31257.6,33136.04,11872.84,-6012.56
300,0.427,0.015,0.001,0.434,0.015,-24.69,12.03,8676.48,15475.28,32213.6,27773.04,17091.84,-13257.56
320,0.259,0.288,1.0,0.0,0.0,-23.11,13.69,9632.48,13795.28,30129.6,12740.04,22508.84,-19102.56
340,0.412,0.064,0.0,1.0,0.0,-20.91,12.46,6716.48,3879.28,27081.6,4484.04,27874.84,-21616.56
360,0.531,0.191,0.0,0.0,0.0,-17.83,11.71,2840.48,1615.28,29417.6,9426.04,30556.84,-19327.56
380,0.4,0.5,0.0,0.035,0.0,-14.59,12.61,-451.52,5011.28,30633.6,16891.04,29829.84,-16253.56
400,0.39,0.197,0.016,0.0,0.0,-12.48,13.63,3104.48,3927.28,22657.6,20058.04,30757.84,-15784.56
420,0.322,0.361,0.06,0.0,0.0,-9.98,14.12,-1435.52,3003.28,20473.6,18789.04,31390.84,-15802.56
440,0.373,0.288,0.0,0.15,0.44,-6.57,15.49,-6603.52,5987.28,22057.6,20274.04,31390.84,-13076.56
460,0.393,0.076,1.0,0.136,0.0,-3.3,17.13,-7791.52,6327.28,20293.6,22126.04,30844.84,-11330.56
480,0.365,0.288,1.0,0.035,1.0,-0.6,19.35,-8199.52,7763.28,15821.6,23177.04,29618.84,-11669.56
500,0.316,0.112,0.12,0.0,0.276,2.33,21.53,-9931.52,9071.28,15641.6,20795.04,28492.84,-11362.56
520,0.442,0.179,0.0,0.57,1.0,5.71,23.78,-12847.52,10671.28,16453.6,19683.04,26704.84,-9082.56
540,0.378,0.015,0.863,0.0,0.342,9.1,26.36,-14987.52,12335.28,16317.6,19871.04,24389.84,-8301.56
560,0.373,0.391,0.0,0.0,1.0,12.2,28.92,-15535.52,12179.28,14457.6,18962.04,21734.84,-9050.56
580,0.366,0.566,0.0,0.116,0.0,14.75,30.67,-15379.52,10607.28,13369.6,15917.04,17881.84,-9359.56
600,0.364,0.0,0.09,1.0,0.0,16.14,32.84,-13727.52,11979.28,11901.6,14295.04,14308.84,-8163.56
620,0.378,0.433,0.0,0.0,0.0,17.65,34.84,-14231.52,11435.28,11365.6,13921.04,13821.84,-7236.56
640,0.372,0.597,0.06,0.0,0.0,19.71,37.1,-14215.52,9799.28,8977.6,13972.04,14353.84,-7871.56
660,0.358,0.397,0.0,0.0,1.0,22.03,39.26,-15639.52,9559.28,8313.6,12139.04,11284.84,-9627.56
680,0.443,0.264,0.417,0.482,0.0,23.49,41.47,-15847.52,10911.28,8329.6,10341.04,8177.84,-10709.56
700,0.35,0.336,1.0,0.0,0.0,24.05,43.78,-14915.52,10943.28,7313.6,7653.04,4147.84,-10653.56
720,0.237,0.003,0.045,0.265,0.636,25.49,45.55,-16051.52,9351.28,6921.6,5056.04,3360.84,-10572.56
740,0.22,0.0,0.09,0.0,0.0,27.21,46.83,-18195.52,9627.28,7189.6,3036.04,2737.84,-11210.56
760,0.298,0.04,0.0,0.0,0.0,28.42,48.51,-18407.52,10191.28,6229.6,482.04,35.84,-11299.56
780,0.296,0.0,0.997,0.0,1.0,29.37,49.19,-18499.52,9227.28,6693.6,-2628.96,-3710.16,-11419.56
800,0.205,0.209,0.0,0.0,0.0,30.37,50.03,-18923.52,9063.28,6269.6,-3980.96,-4317.16,-9750.56
820,0.122,0.143,0.298,0.0,1.0,31.13,50.13,-20335.52,10131.28,7689.6,-2962.96,-4290.16,-6348.56
840,0.158,0.409,0.0,0.0,0.0,31.85,50.16,-22731.52,10759.28,9005.6,138.04,-4647.16,-2851.56
860,0.172,0.0,0.417,0.0,0.08,32.02,50.82,-22131.52,12119.28,8781.6,1512.04,-6219.16,-895.56
880,0.163,0.034,0.045,0.238,0.178,31.6,51.09,-22767.52,14595.28,10869.6,750.04,-7141.16,-567.56
900,0.0,0.106,0.149,0.0,0.0,31.51,51.08,-24455.52,14243.28,12173.6,1638.04,-6172.16,544.44
920,0.232,0.0,0.551,0.0,1.0,31.91,50.92,-23691.52,13103.28,12245.6,2225.04,-3170.16,1223.44
940,0.119,0.0,0.0,0.0,0.0,32.65,50.53,-22575.52,12107.28,11309.6,545.04,-1517.16,350.44
960,0.159,0.197,0.283,0.103,0.0,33.6,50.41,-22287.52,12027.28,9881.6,-811.96,-890.16,-678.56
980,0.176,0.143,1.0,0.0,0.0,34.31,50.52,-22327.52,13451.28,9849.6,-1387.96,-797.16,-1155.56
1000,0.088,0.367,0.536,0.177,1.0,34.81,50.54,-22715.52,14483.28,11113.6,-710.96,-758.16,-860.56
1020,0.14,0.106,1.0,0.0,0.505,35.51,50.86,-21951.52,13355.28,9785.6,-129.96,-467.16,-363.56
1040,0.24,0.203,0.0,1.0,0.276,36.59,51.08,-23323.52,13119.28,9453.6,-1186.96,614.84,-966.56
1060,0.03,0.0,0.0,0.0,0.0,37.39,51.06,-23815.52,14027.28,10477.6,-1780.96,65.84,-856.56
1080,0.173,0.427,0.417,0.251,0.0,37.81,51.37,-22363.52,13983.28,9845.6,-774.96,-1472.16,287.44
1100,0.126,0.0,0.016,0.0,1.0,38.04,51.84,-22019.52,14331.28,9909.6,70.04,-2045.16,837.44
1120,0.131,0.0,0.0,0.251,0.015,38.48,51.87,-23139.52,14443.28,11137.6,-537.96,-804.16,211.44
1140,0.138,0.015,0.268,0.0,0.0,38.97,51.72,-24015.52,15071.28,11997.6,-1057.96,-189.16,-270.56
1160,0.07,0.143,0.0,0.333,0.0,39.25,51.81,-23411.52,15407.28,11381.6,-869.96,-1006.16,-162.56
1180,0.144,0.585,0.0,0.0,0.0,39.66,51.89,-23643.52,14615.28,10805.6,-1141.96,-1271.16,-467.56
1200,0.182,0.342,0.581,0.042,0.734,39.96,51.73,-23711.52,14627.28,11813.6,-1089.96,-1510.16,-382.56
1220,0.187,0.0,0.7,0.001,0.0,40.14,51.56,-23587.52,14747.28,12289.6,-569.96,-1720.16,-29.56
1240,0.125,0.209,0.0,0.921,1.0,40.31,51.41,-23519.52,14459.28,12189.6,-362.96,-2120.16,169.44
1260,0.154,0.597,0.0,0.069,1.0,40.55,51.24,-23187.52,14291.28,12065.6,-582.96,-1453.16,-55.56
1280,0.161,0.0,0.521,0.096,0.0,40.95,50.91,-23519.52,14331.28,12517.6,-1068.96,-325.16,-583.56
1300,0.128,0.155,0.0,0.0,0.0,41.4,50.67,-23399.52,14299.28,12037.6,-1313.96,-111.16,-700.56
1320,0.137,0.167,1.0,0.326,0.145,41.85,50.45,-24123.52,14191.28,11981.6,-1275.96,-706.16,-735.56
1340,0.212,0.403,1.0,1.0,0.0,42.07,50.2,-23667.52,14195.28,12481.6,-758.96,-1526.16,-464.56
1360,0.124,0.403,0.417,0.055,1.0,42.19,50.07,-22587.52,14247.28,12341.6,-301.96,-1286.16,-192.56
1380,0.26,0.0,0.417,0.157,1.0,42.58,49.81,-23127.52,13995.28,12537.6,-634.96,66.84,-414.56
1400,0.236,0.209,0.0,0.0,0.0,43.21,49.47,-24091.52,13555.28,12293.6,-1078.96,505.84,-503.56
1420,0.157,0.209,0.358,0.191,0.0,43.65,49.32,-23547.52,13903.28,11957.6,-975.96,-117.16,6.44
1440,0.162,0.203,0.625,0.0,0.0,43.9,49.39,-22415.52,13979.28,11445.6,-414.96,-571.16,476.44
1460,0.124,0.591,0.0,0.698,0.08,44.17,49.45,-22967.52,14351.28,12025.6,-36.96,-236.16,346.44
1480,0.174,0.373,0.0,0.0,0.276,44.48,49.37,-23563.52,14259.28,12265.6,-440.96,-310.16,-51.56
1500,0.138,0.0,0.0,0.0,0.0,44.71,49.27,-23623.52,14375.28,12065.6,-1181.96,-833.16,-376.56
1520,0.113,0.0,0.001,0.847,1.0,44.9,49.08,-23575.52,14163.28,12069.6,-1554.96,-1184.16,-414.56
1540,0.145,0.221,0.0,0.617,0.0,45.05,48.83,-23495.52,14047.28,12785.6,-814.96,-1012.16,78.44
1560,0.017,0.143,0.372,0.0,0.0,45.32,48.8,-23319.52,14023.28,12397.6,67.04,-310.16,398.44
1580,0.042,0.451,0.0,0.0,1.0,45.65,48.78,-23623.52,14107.28,12445.6,46.04,55.84,151.44
1600,0.162,0.0,0.0,0.089,0.0,45.95,48.64,-23575.52,13815.28,12525.6,-311.96,-211.16,-93.56
1620,0.155,0.324,1.0,0.0,0.0,46.12,48.42,-23215.52,13727.28,12805.6,-352.96,-550.16,-59.56
1640,0.196,0.651,0.075,0.062,0.0,46.39,48.27,-23147.52,13659.28,12637.6,-122.96,62.84,-53.56
1660,0.119,0.015,0.0,0.163,0.0,46.8,48.11,-23383.52,13427.28,12345.6,-401.96,526.84,-350.56
1680,0.076,0.288,1.0,0.0,0.0,47.14,47.92,-23699.52,13959.28,12545.6,-1079.96,430.84,-840.56
1700,0.095,0.149,1.0,0.0,0.0,47.3,47.75,-23079.52,14407.28,12241.6,-1955.96,-42.16,-1756.56
1720,0.181,0.118,1.0,0.0,0.897,47.46,47.42,-22647.52,14027.28,12189.6,-2837.96,57.84,-2566.56
1740,0.059,0.173,0.0,0.0,0.0,47.68,47.04,-23515.52,13991.28,12797.6,-2392.96,177.84,-2062.56
1760,0.325,0.1,0.0,0.0,1.0,48.01,46.71,-24571.52,13615.28,13145.6,-1181.96,94.84,-885.56
1780,0.156,0.106,0.0,0.143,0.0,48.26,46.66,-24103.52,13607.28,12641.6,-44.96,-270.16,184.44
1800,0.17,0.076,0.0,0.482,0.0,48.45,46.67,-23775.52,13687.28,12685.6,231.04,-343.16,575.44
1820,0.112,0.118,0.164,0.028,0.0,48.53,46.68,-23075.52,13895.28,12741.6,43.04,-233.16,481.44
1840,0.163,0.209,0.0,0.0,0.0,48.66,46.69,-22899.52,14187.28,12661.6,-372.96,402.84,-30.56
1860,0.204,0.433,0.0,0.0,0.93,48.94,46.65,-23155.52,13823.28,12481.6,-622.96,931.84,-396.56
1880,0.148,0.0,0.0,0.0,1.0,49.24,46.53,-23743.52,13699.28,12729.6,-682.96,731.84,-392.56
1900,0.129,0.143,0.0,0.258,0.0,49.37,46.42,-23399.52,13619.28,12613.6,-658.96,-167.16,-275.56
1920,0.125,0.009,1.0,0.0,0.0,49.41,46.43,-22747.52,13555.28,12253.6,-435.96,-484.16,-187.56
1940,0.128,0.0,0.0,0.0,0.0,49.5,46.4,-22815.52,13231.28,12477.6,46.04,-272.16,268.44
1960,0.14,0.0,0.0,0.0,0.0,49.63,46.47,-23511.52,13311.28,12753.6,1092.04,-303.16,1074.44
1980,0.237,0.046,0.0,0.042,0.0,49.63,46.77,-23655.52,13827.28,12461.6,1556.04,-1098.16,1671.44
2000,0.109,0.0,0.0,0.021,0.0,49.57,46.97,-23651.52,13835.28,12469.6,937.04,-1490.16,1455.44
2020,0.124,0.457,0.447,0.0,1.0,49.45,46.89,-23363.52,13967.28,13053.6,-252.96,-1256.16,547.44
2040,0.097,0.149,0.0,0.0,0.0,49.41,46.75,-23131.52,14027.28,13149.6,-686.96,-424.16,-215.56
2060,0.122,0.1,1.0,0.0,0.0,49.59,46.59,-23671.52,13711.28,12937.6,-705.96,287.84,-697.56
2080,0.144,0.015,0.417,0.001,0.0,49.89,46.42,-24223.52,13495.28,12813.6,-760.96,484.84,-781.56
2100,0.266,0.246,1.0,0.407,0.407,50.03,46.23,-23383.52,13267.28,12781.6,-775.96,0.84,-317.56
2120,0.257,0.0,0.283,0.0,0.0,50.15,46.1,-23187.52,13363.28,12813.6,-424.96,118.84,147.44
2140,0.232,0.47,0.0,0.0,0.505,50.34,46.08,-23211.52,13523.28,12721.6,-125.96,738.84,117.44
2160,0.092,0.0,0.0,0.13,1.0,50.56,46.02,-23211.52,13475.28,12497.6,-616.96,827.84,-356.56
2180,0.187,0.046,0.0,0.15,0.0,50.71,45.86,-23023.52,13395.28,12525.6,-1212.96,523.84,-872.56
2200,0.153,0.0,0.0,0.0,0.113,50.87,45.72,-22835.52,13675.28,12417.6,-1668.96,935.84,-1873.56
2220,0.269,0.591,0.0,0.0,0.0,51.14,45.4,-23159.52,13831.28,12645.6,-2881.96,1762.84,-3541.56
2240,0.079,0.0,0.0,0.0,0.178,51.42,44.94,-23739.52,13819.28,12853.6,-3657.96,1518.84,-4466.56
2260,0.115,0.0,0.0,0.434,0.0,51.65,44.48,-24255.52,13139.28,12553.6,-3346.96,350.84,-3581.56
2280,0.133,0.403,0.521,0.035,0.0,51.78,44.0,-23539.52,11935.28,12461.6,-2037.96,-734.16,-1430.56
2300,0.09,0.221,0.0,0.482,0.0,51.87,43.86,-24331.52,12371.28,13009.6,181.04,-830.16,558.44
2320,0.089,0.0,0.372,0.0,0.57,51.95,44.09,-24039.52,12923.28,12853.6,1791.04,-379.16,1591.44
2340,0.0,0.0,0.209,0.143,1.0,51.98,44.51,-23583.52,13371.28,12709.6,2297.04,-144.16,1682.44
2360,0.092,0.0,0.03,0.0,1.0,52.03,44.87,-23419.52,13655.28,12361.6,1172.04,110.84,881.44
2380,0.127,0.942,0.283,0.089,0.0,52.22,44.8,-23575.52,12807.28,12357.6,-594.96,342.84,-152.56
2400,0.13,0.403,0.075,0.0,0.0,52.31,44.48,-23619.52,12643.28,12997.6,-1183.96,22.84,-562.56
2420,0.145,0.457,0.045,0.0,1.0,52.37,44.33,-23555.52,12675.28,12709.6,-628.96,-282.16,-412.56
2440,0.089,0.209,0.61,0.0,0.0,52.46,44.23,-23383.52,12459.28,12517.6,-250.96,-150.16,-66.56
2460,0.089,0.076,0.0,0.0,0.0,52.56,44.08,-23443.52,12419.28,12733.6,-271.96,-24.16,229.44
2480,0.097,0.064,0.194,0.0,0.0,52.64,44.03,-23651.52,12587.28,12809.6,252.04,-120.16,849.44
2500,0.109,0.633,0.0,0.136,0.0,52.69,44.22,-23951.52,13243.28,12793.6,963.04,-90.16,1286.44
2520,0.13,0.0,0.0,0.218,0.0,52.76,44.43,-24219.52,13307.28,12617.6,778.04,-131.16,1351.44
2540,0.157,0.0,0.03,0.224,0.178,52.72,44.63,-23859.52,13631.28,12493.6,213.04,-485.16,1325.44
2560,0.161,0.0,0.417,0.0,0.0,52.64,44.76,-23415.52,13491.28,12541.6,-39.96,-541.16,1122.44
2580,0.219,0.1,0.09,0.001,1.0,52.59,44.87,-23503.52,13463.28,12721.6,194.04,-294.16,655.44
2600,0.135,0.149,1.0,0.0,0.0,52.57,44.99,-23655.52,13623.28,12913.6,307.04,49.84,292.44
2620,0.139,0.0,0.596,0.062,0.668,52.53,45.09,-23475.52,13875.28,12949.6,-3.96,225.84,130.44
2640,0.122,0.0,0.7,0.204,0.374,52.56,45.18,-23171.52,13475.28,12473.6,-300.96,430.84,103.44
2660,0.009,0.336,0.744,0.306,0.0,52.65,45.18,-23487.52,13255.28,12589.6,-439.96,529.84,-0.56
2680,0.15,0.034,0.0,0.055,0.0,52.66,45.2,-23107.52,13111.28,12405.6,-361.96,55.84,9.44
2700,0.218,0.185,0.0,0.0,1.0,52.54,45.31,-22727.52,13523.28,12545.6,-111.96,-110.16,36.44
2720,0.169,0.264,0.0,0.062,0.766,52.59,45.42,-23223.52,13327.28,12217.6,-291.96,296.84,-280.56
2740,0.116,0.094,0.06,0.475,0.0,52.66,45.46,-23615.52,13535.28,12425.6,-756.96,419.84,-519.56
2760,0.18,0.04,0.848,0.387,0.309,52.68,45.33,-23575.52,13159.28,12541.6,-1296.96,-18.16,-449.56
2780,0.138,0.0,0.045,0.265,1.0,52.55,45.36,-23099.52,13251.28,12337.6,-612.96,-691.16,61.44
2800,0.188,0.0,0.0,0.265,0.374,52.4,45.55,-23383.52,13767.28,12685.6,288.04,-584.16,401.44
2820,0.176,0.0,0.179,0.996,0.08,52.35,45.75,-23655.52,13659.28,12681.6,518.04,-198.16,399.44
2840,0.072,0.0,0.0,0.048,1.0,52.22,45.84,-23103.52,13463.28,12697.6,116.04,-420.16,345.44
2860,0.11,0.0,0.0,0.0,0.0,52.12,45.95,-23067.52,13467.28,12425.6,-143.96,-369.16,89.44
2880,0.166,0.0,0.0,0.394,0.0,52.05,46.01,-23603.52,13379.28,12805.6,171.04,-490.16,85.44
2900,0.147,0.209,0.239,0.0,0.0,51.86,45.99,-23367.52,13171.28,13217.6,451.04,-960.16,366.44
2920,0.131,0.009,0.0,0.0,0.0,51.6,46.02,-22851.52,13447.28,13297.6,583.04,-883.16,637.44
2940,0.165,0.034,0.729,0.651,0.0,51.45,46.12,-23059.52,13495.28,12889.6,406.04,-549.16,595.44
2960,0.135,0.996,0.0,0.109,0.08,51.37,46.17,-23383.52,13543.28,13101.6,398.04,-204.16,410.44
2980,0.191,0.0,0.0,0.576,0.0,51.36,46.28,-23871.52,13815.28,13137.6,463.04,97.84,303.44
