timestamp,flex_1,flex_2,flex_3,flex_4,flex_5,kalman_pitch,kalman_roll,acc_x,acc_y,acc_z,gyro_x,gyro_y,gyro_z
0,1.0,0.614,0.577,0.622,1.0,-42.51,24.89,1190.56,-4617.92,14664.08,2500.66,-3766.62,1668.78
20,1.0,0.706,1.0,0.63,1.0,-44.48,6.4,914.56,-5281.92,15244.08,4473.66,-37.62,1651.78
39,1.0,0.529,1.0,0.589,1.0,-45.67,-3.26,478.56,-3765.92,15976.08,5310.66,1304.38,2009.78
59,1.0,0.56,1.0,0.589,1.0,-46.18,-9.7,-117.44,-3797.92,16664.08,3127.66,71.38,1837.78
79,1.0,0.498,1.0,0.573,1.0,-45.74,-15.15,-237.44,-6969.92,17952.08,4125.66,-1605.62,2841.78
99,1.0,0.591,1.0,0.597,1.0,-44.85,-19.23,-137.44,-10377.92,19024.08,9933.66,-2502.62,5450.78
118,1.0,0.575,1.0,0.581,1.0,-43.35,-21.21,-1397.44,-13353.92,21584.08,18604.66,-3103.62,9067.78
137,1.0,0.552,0.851,0.581,1.0,-42.06,-21.26,-981.44,-13461.92,23384.08,26723.66,-2612.62,12062.78
156,1.0,0.591,1.0,0.548,1.0,-40.87,-20.39,-653.44,-13033.92,24984.08,29378.66,-1577.62,12270.78
175,1.0,0.591,0.668,0.573,1.0,-39.81,-18.71,170.56,-12581.92,27260.08,31888.66,-959.62,14306.78
195,1.0,0.591,1.0,0.548,1.0,-39.07,-16.38,398.56,-12353.92,29584.08,33236.66,-2826.62,17635.78
215,1.0,0.49,1.0,0.581,1.0,-38.4,-14.01,2574.56,-11365.92,29736.08,33236.66,-177.62,17940.78
235,1.0,0.591,0.211,0.548,1.0,-37.48,-11.58,4078.56,-11153.92,31252.08,33236.66,2833.38,19273.78
254,1.0,0.614,1.0,0.54,1.0,-36.56,-9.0,7162.56,-8517.92,30200.08,33236.66,7045.38,19214.78
275,1.0,0.629,1.0,0.597,1.0,-35.3,-5.9,8830.56,-3781.92,29296.08,33236.66,12668.38,17473.78
294,1.0,0.629,0.76,0.589,1.0,-33.46,-2.83,9638.56,-837.92,29376.08,30726.66,18229.38,13733.78
315,1.0,0.637,0.622,0.573,1.0,-31.23,-1.28,9202.56,-1173.92,28996.08,22000.66,21601.38,10090.78
334,1.0,0.637,1.0,0.581,1.0,-28.9,-0.79,8946.56,-1845.92,27248.08,16496.66,24088.38,8936.78
354,1.0,0.645,0.805,0.606,1.0,-26.5,-0.9,8146.56,-2873.92,25736.08,14329.66,25764.38,7162.78
374,1.0,0.745,0.851,0.63,1.0,-24.09,-1.01,7210.56,-2825.92,23756.08,15148.66,27437.38,5840.78
394,1.0,0.675,0.989,0.639,1.0,-21.71,-0.87,5894.56,-2273.92,22448.08,16797.66,28475.38,5311.78
414,1.0,0.683,1.0,0.647,1.0,-19.54,-0.55,4598.56,-945.92,20924.08,17015.66,28660.38,4024.78
434,1.0,0.699,1.0,0.63,1.0,-17.62,-0.4,3318.56,446.08,19116.08,14628.66,28840.38,1980.78
454,1.0,0.699,0.989,0.639,1.0,-15.87,-0.59,1370.56,1206.08,17636.08,11588.66,28697.38,1396.78
475,1.0,0.838,1.0,0.639,1.0,-14.54,-0.96,266.56,2042.08,15548.08,9678.66,28312.38,1099.78
494,1.0,0.637,0.668,0.622,1.0,-13.78,-1.37,-1473.44,3390.08,12636.08,6454.66,28093.38,-186.22
514,1.0,0.645,0.943,0.614,1.0,-13.59,-2.55,-4585.44,3362.08,10480.08,3032.66,26336.38,-1635.22
534,1.0,0.637,0.989,0.622,1.0,-14.11,-4.67,-6645.44,3082.08,9332.08,1996.66,22726.38,-1442.22
554,1.0,0.699,1.0,0.63,1.0,-15.31,-8.37,-8437.44,2850.08,8256.08,2651.66,18573.38,-942.22
574,1.0,0.729,0.805,0.597,1.0,-17.2,-14.52,-10437.44,3266.08,7316.08,4292.66,13920.38,-282.22
594,1.0,0.729,0.897,0.622,1.0,-18.69,-21.84,-11845.44,3346.08,6784.08,6311.66,9533.38,608.78
614,1.0,0.629,0.851,0.54,1.0,-18.47,-24.44,-13289.44,3342.08,7920.08,6450.66,5235.38,1405.78
634,1.0,0.668,1.0,0.589,1.0,-17.46,-25.23,-13837.44,2606.08,9976.08,6161.66,1780.38,2219.78
654,1.0,0.714,0.851,0.622,1.0,-16.9,-25.67,-13865.44,2026.08,11520.08,7007.66,-272.62,2982.78
674,1.0,0.66,1.0,0.622,1.0,-16.9,-26.02,-12577.44,1150.08,12612.08,8555.66,1087.38,3594.78
694,1.0,0.699,0.897,0.63,1.0,-15.83,-25.97,-14165.44,662.08,15408.08,8865.66,3355.38,2178.78
714,1.0,0.544,0.897,0.63,1.0,-14.37,-25.94,-16945.44,-401.92,19028.08,7988.66,2112.38,2479.78
734,1.0,0.699,1.0,0.63,1.0,-13.24,-26.33,-17421.44,-3017.92,20924.08,7564.66,558.38,3444.78
755,1.0,0.637,0.0,0.54,1.0,-12.12,-26.7,-20213.44,-4101.92,24936.08,6557.66,-987.62,4377.78
775,1.0,0.66,0.989,0.614,1.0,-11.13,-27.2,-20949.44,-5673.92,26720.08,5960.66,-1944.62,9728.78
793,1.0,0.668,0.851,0.622,0.262,-10.12,-27.43,-17913.44,-1729.92,25892.08,4048.66,909.38,16316.78
812,1.0,0.668,1.0,0.597,1.0,-9.06,-27.99,-16653.44,938.08,27068.08,-1160.34,2933.38,18243.78
833,1.0,0.629,0.897,0.606,1.0,-8.07,-28.61,-15421.44,2126.08,26740.08,-3230.34,3950.38,18521.78
852,1.0,0.629,1.0,0.589,1.0,-7.08,-28.59,-13533.44,3470.08,26144.08,-635.34,6269.38,19069.78
872,1.0,0.614,1.0,0.589,1.0,-5.98,-27.93,-12713.44,6298.08,25764.08,378.66,8260.38,19335.78
893,1.0,0.629,0.897,0.548,1.0,-4.81,-27.25,-11821.44,7902.08,24332.08,-1758.34,10299.38,19298.78
913,1.0,0.629,0.805,0.606,1.0,-3.63,-26.89,-11337.44,8834.08,23780.08,-5244.34,11462.38,19102.78
933,1.0,0.645,0.76,0.63,1.0,-2.62,-26.82,-11469.44,9066.08,24132.08,-7648.34,10526.38,19436.78
953,1.0,0.614,0.897,0.573,1.0,-1.95,-26.41,-11069.44,9674.08,23108.08,-6697.34,9148.38,19852.78
973,1.0,0.629,0.989,0.556,1.0,-1.44,-25.59,-11009.44,10970.08,23472.08,-5340.34,8265.38,18624.78
993,1.0,0.629,0.989,0.556,1.0,-1.13,-24.3,-10465.44,12746.08,23972.08,-3808.34,7569.38,18436.78
1013,1.0,0.621,0.714,0.581,1.0,-0.83,-22.54,-9497.44,14710.08,22608.08,-3233.34,8693.38,17176.78
1033,1.0,0.629,0.577,0.614,1.0,-0.31,-20.72,-9685.44,16670.08,21576.08,-4999.34,10196.38,14869.78
1053,1.0,0.629,0.851,0.499,0.329,0.26,-19.28,-10665.44,15754.08,21468.08,-6709.34,9830.38,12227.78
1073,1.0,0.621,1.0,0.573,1.0,0.63,-17.82,-11873.44,13810.08,21624.08,-4569.34,7444.38,11270.78
1092,1.0,0.629,1.0,0.565,1.0,0.74,-15.63,-12409.44,14398.08,21280.08,-176.34,5218.38,11917.78
1112,1.0,0.652,1.0,0.54,1.0,0.65,-13.01,-11889.44,16330.08,20664.08,942.66,4366.38,11381.78
1132,1.0,0.668,0.805,0.63,1.0,0.54,-10.66,-11705.44,17022.08,19592.08,-1792.34,4563.38,8715.78
1152,1.0,0.591,0.577,0.622,0.53,0.43,-8.83,-11417.44,14822.08,20520.08,-2216.34,4988.38,6962.78
1172,1.0,0.652,0.989,0.63,1.0,0.48,-6.79,-13061.44,14670.08,20576.08,-314.34,4143.38,6599.78
1192,1.0,0.621,0.851,0.556,1.0,0.43,-4.56,-13457.44,13954.08,20076.08,1730.66,2923.38,5687.78
1212,1.0,0.645,0.805,0.589,1.0,0.21,-2.31,-13849.44,13362.08,19748.08,2743.66,1221.38,4930.78
1233,1.0,0.637,0.897,0.589,1.0,-0.08,0.05,-14701.44,14330.08,20512.08,3728.66,-321.62,4862.78
1252,1.0,0.614,0.805,0.54,1.0,-0.45,2.31,-15105.44,15058.08,20708.08,3004.66,-1515.62,4183.78
1272,1.0,0.598,1.0,0.655,0.597,-0.79,4.19,-15141.44,14118.08,20992.08,2066.66,-1548.62,2918.78
1292,1.0,0.668,0.897,0.573,0.933,-0.98,6.01,-15277.44,14210.08,21540.08,2427.66,-773.62,1974.78
1312,1.0,0.629,0.805,0.548,1.0,-1.08,7.67,-15125.44,13262.08,21296.08,2577.66,-179.62,1141.78
1332,1.0,0.652,1.0,0.63,1.0,-1.07,9.19,-15261.44,12098.08,20984.08,3046.66,259.38,645.78
1352,1.0,0.629,1.0,0.523,1.0,-1.0,10.72,-15797.44,12198.08,20920.08,3384.66,-140.62,725.78
1372,1.0,0.629,0.943,0.745,1.0,-1.06,12.15,-15905.44,12418.08,21032.08,2914.66,-1108.62,873.78
1392,1.0,0.629,0.897,0.573,0.0,-1.16,13.39,-15541.44,12010.08,20648.08,2150.66,-1132.62,539.78
1412,1.0,0.614,0.76,0.548,1.0,-1.2,14.34,-15729.44,11650.08,21068.08,1211.66,-1067.62,530.78
1432,1.0,0.629,0.76,0.581,1.0,-1.24,15.17,-15805.44,11490.08,21032.08,776.66,-1185.62,746.78
1452,1.0,0.637,0.485,0.762,1.0,-1.22,16.05,-15693.44,11794.08,20580.08,636.66,-772.62,307.78
1472,1.0,0.629,0.714,0.515,1.0,-1.11,16.9,-15745.44,12126.08,20460.08,208.66,-256.62,-26.22
1492,1.0,0.637,0.989,0.622,1.0,-0.89,17.57,-16313.44,11590.08,20696.08,-15.34,-283.62,-286.22
1511,1.0,0.714,0.851,0.54,1.0,-0.75,18.14,-16413.44,11170.08,20980.08,111.66,-1145.62,-139.22
1531,1.0,0.637,0.897,0.482,1.0,-0.74,18.7,-16089.44,11102.08,21184.08,404.66,-1411.62,-23.22
1551,1.0,0.637,0.989,0.556,1.0,-0.75,19.17,-15853.44,10714.08,21400.08,506.66,-1256.62,-7.22
1571,1.0,0.614,0.989,0.548,1.0,-0.66,19.67,-16073.44,10894.08,21364.08,585.66,-964.62,149.78
1591,1.0,0.629,0.76,0.556,1.0,-0.51,20.09,-16113.44,11118.08,21240.08,-176.34,-626.62,-211.22
1610,1.0,0.591,0.805,0.548,0.664,-0.34,20.36,-16305.44,10754.08,21392.08,-596.34,-818.62,-327.22
1629,1.0,0.629,0.805,0.548,0.0,-0.26,20.53,-16273.44,10362.08,21924.08,-451.34,-1395.62,166.78
1649,1.0,0.606,0.577,0.54,1.0,-0.29,20.74,-16173.44,10298.08,22488.08,194.66,-1838.62,940.78
1669,1.0,0.652,0.989,0.548,1.0,-0.32,21.15,-15761.44,11286.08,22348.08,501.66,-1323.62,1245.78
1689,1.0,0.621,0.805,0.54,0.53,-0.25,21.58,-15513.44,11810.08,22248.08,49.66,-396.62,1197.78
1709,1.0,0.591,1.0,0.54,1.0,-0.09,21.91,-15725.44,11786.08,22460.08,-309.34,-14.62,1115.78
1729,1.0,0.614,0.897,0.647,1.0,-0.01,22.28,-15537.44,12222.08,22424.08,-418.34,-285.62,922.78
1750,1.0,0.614,0.805,0.532,0.329,0.03,22.69,-15665.44,12414.08,22680.08,-132.34,-695.62,550.78
1769,1.0,0.621,0.714,0.54,1.0,0.0,23.17,-15453.44,12450.08,22724.08,438.66,-952.62,351.78
1795,1.0,0.652,0.668,0.54,1.0,0.04,23.68,-15301.44,12650.08,22388.08,407.66,-357.62,-184.22
1809,1.0,0.567,1.0,0.573,1.0,0.21,24.04,-15397.44,12066.08,22452.08,76.66,344.38,-479.22
1829,1.0,0.629,0.897,0.556,1.0,0.44,24.27,-15625.44,11314.08,22500.08,153.66,458.38,-435.22
1849,1.0,0.621,0.577,0.581,1.0,0.64,24.47,-15685.44,10610.08,22376.08,724.66,162.38,-247.22
1869,1.0,0.629,1.0,0.556,0.53,0.81,24.9,-15617.44,11386.08,22068.08,1325.66,111.38,343.78
1889,1.0,0.621,0.622,0.532,1.0,1.03,25.39,-15549.44,12146.08,21604.08,795.66,535.38,185.78
1909,1.0,0.637,1.0,0.54,1.0,1.31,25.69,-15569.44,11794.08,21316.08,-138.34,887.38,-93.22
1929,1.0,0.614,0.668,0.573,1.0,1.59,25.89,-15793.44,11670.08,21152.08,-769.34,662.38,-299.22
1949,1.0,0.645,0.714,0.441,1.0,1.8,25.99,-15793.44,11250.08,20988.08,-1020.34,131.38,-596.22
1969,1.0,0.645,1.0,0.581,0.597,1.95,26.07,-15913.44,10830.08,21300.08,-493.34,-340.62,-442.22
1989,1.0,0.637,0.851,0.515,1.0,2.03,26.21,-15817.44,10698.08,21500.08,248.66,-698.62,-104.22
2009,1.0,0.606,0.805,0.54,1.0,2.13,26.47,-15481.44,11134.08,21460.08,600.66,-127.62,63.78
2029,1.0,0.583,1.0,0.581,0.597,2.38,26.64,-15781.44,11038.08,21700.08,291.66,559.38,-73.22
2049,1.0,0.629,0.851,0.515,0.53,2.6,26.72,-15901.44,10690.08,21512.08,52.66,215.38,105.78
2069,1.0,0.606,0.668,0.523,0.0,2.74,26.83,-15669.44,11110.08,21560.08,-164.34,14.38,340.78
2089,1.0,0.66,0.805,0.581,0.597,2.85,26.93,-15505.44,11426.08,21660.08,-554.34,45.38,445.78
2109,1.0,0.652,1.0,0.581,1.0,2.95,26.99,-15517.44,11142.08,21780.08,-325.34,44.38,352.78
2129,1.0,0.621,1.0,0.54,1.0,3.05,27.21,-15453.44,11490.08,21552.08,213.66,89.38,232.78
2149,1.0,0.637,0.851,0.523,0.866,3.17,27.43,-15429.44,11678.08,21284.08,-16.34,217.38,61.78
2169,1.0,0.606,0.989,0.491,1.0,3.33,27.54,-15657.44,11358.08,21284.08,-421.34,185.38,-123.22
2189,1.0,0.606,0.577,0.556,0.866,3.43,27.54,-15813.44,10982.08,21432.08,-652.34,-312.62,75.78
2209,1.0,0.637,0.897,0.54,1.0,3.46,27.55,-15621.44,11022.08,21712.08,-377.34,-600.62,290.78
2229,1.0,0.536,0.805,0.556,1.0,3.51,27.63,-15673.44,11262.08,21912.08,-106.34,-431.62,420.78
2249,1.0,0.56,0.805,0.507,1.0,3.56,27.72,-15561.44,11362.08,22144.08,36.66,-292.62,575.78
2269,1.0,0.591,1.0,0.523,1.0,3.61,27.85,-15405.44,11698.08,22176.08,2.66,-111.62,504.78
2291,1.0,0.56,0.622,0.532,1.0,3.67,28.0,-15101.44,11974.08,22016.08,-194.34,319.38,310.78
2309,1.0,0.598,0.485,0.63,1.0,3.8,28.07,-15477.44,11734.08,21988.08,-507.34,377.38,-34.22
2329,1.0,0.629,0.897,0.581,0.463,3.89,28.14,-15577.44,11738.08,21976.08,-424.34,-12.62,27.78
2349,1.0,0.629,0.851,0.515,1.0,3.94,28.18,-15489.44,11542.08,21932.08,-488.34,-174.62,-101.22
2369,1.0,0.745,0.714,0.556,1.0,3.99,28.23,-15445.44,11342.08,22108.08,-69.34,-91.62,70.78
2389,1.0,0.621,1.0,0.54,1.0,4.06,28.37,-15297.44,11522.08,21672.08,152.66,124.38,-193.22
2409,1.0,0.598,0.668,0.556,0.664,4.14,28.44,-15457.44,11342.08,21760.08,-7.34,47.38,-272.22
2429,1.0,0.567,0.805,0.63,1.0,4.18,28.48,-15445.44,11058.08,21808.08,77.66,-207.62,-238.22
2449,1.0,0.606,0.897,0.491,1.0,4.22,28.52,-15429.44,11146.08,22008.08,171.66,-186.62,-30.22
2469,1.0,0.629,0.805,0.499,0.664,4.3,28.57,-15497.44,11370.08,21816.08,-134.34,-23.62,-12.22
2489,1.0,0.629,0.851,0.458,1.0,4.38,28.56,-15425.44,11278.08,22028.08,-264.34,139.38,-4.22
2509,1.0,0.614,0.989,0.573,1.0,4.46,28.57,-15389.44,11294.08,21940.08,-205.34,170.38,-39.22
2529,1.0,0.621,0.668,0.589,1.0,4.55,28.57,-15417.44,11338.08,21800.08,-355.34,201.38,-354.22
2549,1.0,0.606,1.0,0.523,1.0,4.65,28.53,-15677.44,10882.08,21964.08,-70.34,-41.62,-305.22
2569,1.0,0.614,0.897,0.573,1.0,4.71,28.57,-15477.44,11134.08,21788.08,145.66,-33.62,-199.22
2589,1.0,0.606,0.851,0.54,1.0,4.81,28.52,-15565.44,10798.08,21796.08,-150.34,64.38,-259.22
2609,1.0,0.621,1.0,0.556,1.0,4.88,28.42,-15625.44,10486.08,22024.08,17.66,-138.62,93.78
2629,1.0,0.583,0.989,0.548,1.0,4.93,28.39,-15361.44,11002.08,21748.08,-175.34,71.38,162.78
2649,1.0,0.637,0.851,0.532,1.0,5.04,28.28,-15397.44,10910.08,21664.08,-760.34,345.38,-43.22
2669,1.0,0.629,0.989,0.573,0.933,5.17,28.11,-15657.44,10910.08,21552.08,-1196.34,240.38,-123.22
2689,1.0,0.614,1.0,0.573,1.0,5.24,27.89,-15781.44,10798.08,21876.08,-1288.34,-271.62,-102.22
2709,1.0,0.621,0.989,0.54,1.0,5.22,27.73,-15693.44,10518.08,22196.08,-551.34,-756.62,283.78
2729,1.0,0.699,1.0,0.573,1.0,5.17,27.67,-15589.44,10754.08,22508.08,101.66,-786.62,448.78
2749,1.0,0.614,1.0,0.573,1.0,5.17,27.7,-15369.44,10902.08,22552.08,549.66,-253.62,604.78
2769,1.0,0.614,0.714,0.565,0.933,5.25,27.77,-15293.44,11306.08,22360.08,339.66,454.38,293.78
2789,1.0,0.521,0.989,0.523,1.0,5.37,27.74,-15373.44,11062.08,22300.08,-142.34,553.38,299.78
2814,1.0,0.614,1.0,0.573,0.664,5.48,27.74,-15513.44,11386.08,22036.08,-349.34,389.38,298.78
2829,1.0,0.598,0.714,0.63,0.732,5.55,27.69,-15553.44,11454.08,22148.08,-716.34,96.38,132.78
2849,1.0,0.683,0.531,0.589,0.732,5.54,27.67,-15385.44,11250.08,22384.08,-193.34,-176.62,238.78
2869,1.0,0.606,0.577,0.532,1.0,5.54,27.69,-15193.44,10950.08,22388.08,412.66,10.38,227.78
2889,1.0,0.606,0.668,0.458,1.0,5.6,27.81,-15265.44,11110.08,22240.08,815.66,403.38,233.78
2909,1.0,0.591,1.0,0.54,1.0,5.73,27.93,-15193.44,11502.08,21860.08,345.66,950.38,95.78
2929,1.0,0.621,1.0,0.573,0.664,5.92,27.91,-15405.44,11258.08,21580.08,-555.34,1050.38,-283.22
2949,1.0,0.645,1.0,0.548,1.0,6.04,27.75,-15805.44,10718.08,21804.08,-787.34,172.38,-85.22
2969,1.0,0.583,0.851,0.573,1.0,6.0,27.69,-15453.44,10958.08,22040.08,-233.34,-430.62,111.78
2989,1.0,0.645,0.989,0.556,1.0,5.96,27.74,-15129.44,11050.08,21836.08,252.66,-63.62,104.78
