timestamp,flex_1,flex_2,flex_3,flex_4,flex_5,kalman_pitch,kalman_roll,acc_x,acc_y,acc_z,gyro_x,gyro_y,gyro_z
0,0.124,0.544,1.0,0.0,0.0,43.67,22.16,4965.2,-4685.68,17903.04,-209.98,446.1,139.74
20,0.708,0.586,1.0,0.0,0.106,31.22,11.89,5133.2,-4997.68,17567.04,-620.98,633.1,100.74
40,0.416,0.527,1.0,0.0,0.0,24.78,6.34,4977.2,-5137.68,17759.04,-526.98,519.1,-71.26
59,0.708,0.544,1.0,0.0,0.384,20.76,3.12,4913.2,-4821.68,17731.04,84.02,90.1,22.74
81,1.0,0.501,1.0,0.0,1.0,18.0,0.83,4809.2,-4913.68,17835.04,58.02,-203.9,21.74
100,0.416,0.544,1.0,0.0,0.273,15.66,-0.71,5313.2,-4637.68,17939.04,243.02,-358.9,353.74
120,1.0,0.501,1.0,0.0,0.273,13.71,-2.22,5593.2,-5177.68,17839.04,-22.98,-293.9,557.74
141,1.0,0.544,1.0,0.0,0.384,11.9,-3.31,6449.2,-5053.68,18475.04,285.02,610.1,135.74
160,0.416,0.493,1.0,0.0,0.384,10.71,-4.3,5921.2,-5329.68,18259.04,596.02,1388.1,-548.26
181,1.0,0.459,1.0,0.0,0.607,10.04,-5.05,5941.2,-5857.68,18451.04,2453.02,3876.1,-684.26
201,0.708,0.527,1.0,0.0,0.273,10.04,-5.42,5285.2,-5829.68,18743.04,4243.02,6464.1,423.74
221,0.562,0.493,1.0,0.0,0.44,10.52,-5.49,5285.2,-5801.68,18767.04,5894.02,9705.1,1189.74
241,0.416,0.51,1.0,0.0,0.273,11.65,-5.28,4473.2,-5629.68,19675.04,7017.02,12986.1,2580.74
261,0.416,0.443,1.0,0.0,0.44,13.57,-5.14,2537.2,-6985.68,22055.04,7942.02,16666.1,2999.74
281,1.0,0.493,1.0,0.0,0.217,15.77,-4.8,1325.2,-8309.68,22383.04,11071.02,18148.1,3865.74
301,0.708,0.535,1.0,0.0,0.217,18.31,-3.36,753.2,-6205.68,21563.04,16262.02,20420.1,6543.74
319,1.0,0.51,1.0,0.0,0.384,21.46,-1.29,-2010.8,-2853.68,20707.04,16533.02,21856.1,6908.74
341,1.0,0.51,1.0,0.0,0.44,24.79,0.51,-3898.8,-1293.68,20427.04,13314.02,22292.1,7582.74
361,0.416,0.501,1.0,0.0,0.273,28.13,1.82,-4418.8,-997.68,19771.04,10244.02,22997.1,8143.74
381,0.124,0.459,1.0,0.0,1.0,31.64,3.26,-5370.8,-89.68,17823.04,10049.02,23390.1,8891.74
400,1.0,0.493,1.0,0.0,0.329,35.07,4.81,-5630.8,690.32,16655.04,9887.02,23350.1,8501.74
421,0.854,0.451,1.0,0.0,1.0,38.63,6.77,-6142.8,2794.32,14783.04,9056.02,24195.1,8578.74
440,0.416,0.476,1.0,0.0,0.44,42.4,8.42,-5910.8,2058.32,14003.04,8392.02,26590.1,8381.74
461,1.0,0.51,1.0,0.0,1.0,46.73,11.03,-7842.8,4438.32,11883.04,9722.02,29511.1,8200.74
480,1.0,0.518,1.0,1.0,0.273,51.0,13.48,-7718.8,4998.32,11023.04,7746.02,30724.1,10133.74
500,0.562,0.686,1.0,0.048,0.0,55.03,15.54,-8430.8,4006.32,10095.04,6372.02,28864.1,11757.74
521,0.854,0.409,1.0,0.062,0.106,58.42,18.26,-9738.8,5478.32,8655.04,7012.02,25099.1,13347.74
540,1.0,0.426,1.0,0.05,1.0,61.21,21.51,-7790.8,5318.32,7119.04,9062.02,22586.1,14844.74
561,0.27,0.333,1.0,0.009,1.0,63.5,25.57,-6766.8,7218.32,5195.04,9596.02,21986.1,14620.74
580,0.27,0.232,1.0,0.014,0.273,65.47,29.49,-6302.8,7514.32,4135.04,7569.02,21178.1,13539.74
600,1.0,0.123,1.0,0.017,1.0,67.18,33.57,-5770.8,7302.32,2371.04,5920.02,20194.1,11894.74
621,0.27,0.073,1.0,0.023,1.0,68.64,37.74,-5142.8,7410.32,1103.04,4784.02,20005.1,9967.74
641,0.562,0.022,1.0,0.0,1.0,69.88,41.89,-5302.8,7898.32,491.04,4658.02,19675.1,8470.74
660,0.562,0.056,1.0,0.0,0.552,70.79,46.11,-5486.8,7798.32,-180.96,4882.02,17885.1,8155.74
681,0.562,0.014,1.0,0.0,1.0,71.16,50.63,-5170.8,8102.32,-1056.96,6508.02,15499.1,8131.74
701,0.27,0.022,1.0,0.023,0.44,70.89,55.28,-4358.8,8926.32,-2204.96,7089.02,13395.1,7032.74
721,0.708,0.039,1.0,0.034,0.552,70.11,59.68,-3354.8,9330.32,-2824.96,5969.02,11497.1,5049.74
740,0.708,0.005,1.0,0.008,1.0,69.06,63.89,-3114.8,9214.32,-3472.96,4762.02,10067.1,2716.74
761,1.0,0.0,1.0,0.014,0.329,67.87,67.74,-4242.8,9310.32,-3424.96,3599.02,7744.1,1166.74
780,0.27,0.0,1.0,0.058,1.0,66.27,71.45,-4694.8,9006.32,-3448.96,3497.02,4006.1,280.74
800,0.27,0.0,1.0,0.054,1.0,64.11,74.99,-4126.8,9142.32,-3172.96,3955.02,287.1,-169.26
820,1.0,0.0,1.0,0.013,0.496,61.63,78.53,-3126.8,8674.32,-3564.96,4045.02,-1708.9,-1075.26
841,0.0,0.0,1.0,0.012,0.44,59.09,81.61,-2826.8,8482.32,-2728.96,3166.02,-2986.9,-2278.26
861,0.124,0.199,1.0,0.001,0.273,56.53,84.19,-3374.8,8430.32,-1640.96,2565.02,-5027.9,-3099.26
881,0.416,0.0,1.0,0.0,1.0,53.79,86.48,-2978.8,7762.32,-996.96,2228.02,-7486.9,-3728.26
899,0.562,0.0,1.0,0.0,0.0,51.03,88.4,-2722.8,7234.32,-16.96,2267.02,-9163.9,-4432.26
921,0.854,0.0,1.0,0.0,1.0,48.2,90.08,-2166.8,6658.32,451.04,2044.02,-10637.9,-4628.26
941,0.708,0.0,1.0,0.0,0.0,45.53,90.98,-2182.8,6110.32,2331.04,1906.02,-11513.9,-4498.26
961,0.0,0.0,1.0,0.0,0.44,43.11,91.11,-2906.8,5298.32,3919.04,1546.02,-12388.9,-4701.26
981,0.854,0.0,1.0,0.0,0.329,40.69,90.93,-2546.8,5462.32,4327.04,498.02,-12600.9,-4635.26
999,0.124,0.0,1.0,0.0,0.273,38.6,90.77,-2362.8,4762.32,3887.04,45.02,-12214.9,-4145.26
1021,0.416,0.0,1.0,0.0,0.496,36.8,90.82,-2658.8,5118.32,3471.04,183.02,-11150.9,-3694.26
1041,1.0,0.0,0.0,0.0,1.0,35.23,90.36,-3642.8,5062.32,4943.04,791.02,-10881.9,-3609.26
1061,0.708,0.0,1.0,0.0,0.0,33.51,89.1,-2118.8,3426.32,6439.04,1268.02,-11895.9,-3747.26
1081,1.0,0.0,1.0,0.0,0.44,31.86,88.15,-3146.8,4610.32,6751.04,1915.02,-11771.9,-3707.26
1100,0.854,0.0,1.0,0.0,1.0,30.48,87.2,-2938.8,5062.32,6411.04,522.02,-10231.9,-4031.26
1121,0.416,0.0,1.0,0.005,0.329,29.63,86.0,-3698.8,4534.32,6795.04,208.02,-8403.9,-4234.26
1140,0.562,0.0,1.0,0.0,0.607,28.81,84.67,-5110.8,5066.32,8059.04,653.02,-8586.9,-4454.26
1161,0.708,0.0,1.0,0.0,0.273,28.13,83.23,-5370.8,4642.32,7947.04,134.02,-8806.9,-4439.26
1181,0.854,0.0,1.0,0.0,1.0,27.63,81.61,-4734.8,4378.32,8191.04,-652.98,-7436.9,-4101.26
1200,1.0,0.0,1.0,0.0,1.0,27.61,80.11,-4962.8,4058.32,8047.04,153.02,-5126.9,-2665.26
1220,0.416,0.0,0.816,0.0,0.0,28.03,79.22,-6174.8,4206.32,7443.04,2649.02,-3561.9,-331.26
1240,0.708,0.0,1.0,0.0,0.552,28.51,78.93,-7266.8,5454.32,7107.04,4257.02,-3212.9,1151.74
1261,0.27,0.0,1.0,0.0,0.329,28.78,78.7,-7226.8,6186.32,7051.04,3744.02,-3945.9,1607.74
1281,0.562,0.0,1.0,0.0,1.0,29.0,78.49,-6350.8,6174.32,6515.04,2962.02,-4036.9,1207.74
1300,1.0,0.0,1.0,0.0,0.0,29.35,78.27,-6346.8,6602.32,6411.04,2292.02,-2807.9,462.74
1321,0.0,0.0,1.0,0.0,0.384,29.88,77.77,-6194.8,5914.32,6787.04,1782.02,-1901.9,-104.26
1341,0.854,0.09,0.913,0.0,0.273,30.54,77.32,-6530.8,6294.32,6695.04,1469.02,-1003.9,-864.26
1361,0.708,0.0,1.0,0.0,1.0,31.36,76.85,-8866.8,7090.32,6487.04,194.02,-770.9,-1399.26
1380,1.0,0.0,1.0,0.0,0.0,32.18,76.03,-6810.8,5418.32,6587.04,-517.98,-690.9,-1472.26
1401,0.708,0.0,1.0,0.0,0.44,33.06,75.39,-6378.8,5338.32,6279.04,86.02,-13.9,-1016.26
1420,0.416,0.0,1.0,0.013,0.496,34.09,74.89,-6546.8,5278.32,5807.04,-15.98,723.1,-618.26
1440,0.562,0.0,0.0,0.0,0.273,35.21,74.5,-6754.8,5262.32,5751.04,465.02,1428.1,-225.26
1460,0.708,0.0,0.0,0.0,0.384,36.18,74.11,-7314.8,5758.32,6011.04,455.02,840.1,405.74
1479,0.854,0.0,1.0,0.0,0.552,37.0,73.88,-6730.8,5502.32,5467.04,577.02,-14.9,1054.74
1501,0.416,0.0,1.0,0.0,0.273,37.68,73.83,-5894.8,5706.32,5163.04,942.02,-100.9,1146.74
1521,0.854,0.0,1.0,0.0,1.0,38.38,73.8,-5714.8,6062.32,4963.04,366.02,583.1,698.74
1540,1.0,0.0,1.0,0.0,0.0,39.15,73.7,-6278.8,6034.32,5071.04,146.02,818.1,424.74
1561,0.416,0.0,1.0,0.0,1.0,39.84,73.58,-6450.8,6106.32,4999.04,-189.98,375.1,53.74
1580,1.0,0.0,1.0,0.0,0.217,40.46,73.34,-6514.8,5978.32,5067.04,-815.98,-101.9,-287.26
1600,0.27,0.0,1.0,0.0,1.0,41.06,73.05,-6334.8,5838.32,5275.04,-620.98,-23.9,-477.26
1619,0.124,0.0,1.0,0.0,0.44,41.69,72.8,-6402.8,5786.32,5223.04,-547.98,133.1,-212.26
1640,1.0,0.0,1.0,0.0,0.273,42.3,72.62,-6698.8,5934.32,5467.04,310.02,223.1,357.74
1661,1.0,0.0,1.0,0.0,1.0,42.88,72.56,-6670.8,5798.32,5219.04,659.02,-48.9,448.74
1681,0.708,0.0,1.0,0.0,0.44,43.37,72.55,-6626.8,6234.32,5091.04,426.02,-179.9,96.74
1700,0.416,0.0,0.0,0.0,0.496,43.86,72.35,-6642.8,5750.32,5179.04,-287.98,-503.9,-94.26
1720,1.0,0.0,1.0,0.0,0.0,44.31,72.24,-6294.8,5970.32,5099.04,-114.98,-232.9,-209.26
1740,0.708,0.0,1.0,0.0,0.0,44.78,71.99,-7154.8,6114.32,5347.04,-644.98,-357.9,-293.26
1761,1.0,0.0,1.0,0.0,0.273,45.2,71.78,-6730.8,5666.32,5471.04,155.02,-756.9,105.74
1781,0.562,0.0,1.0,0.0,1.0,45.56,71.65,-6566.8,6110.32,5503.04,391.02,-455.9,229.74
1800,0.124,0.148,1.0,0.0,0.273,45.98,71.44,-6546.8,5766.32,5483.04,38.02,-292.9,89.74
1820,0.854,0.0,1.0,0.0,0.44,46.48,71.27,-6506.8,5726.32,5351.04,82.02,226.1,-131.26
1840,1.0,0.0,1.0,0.0,0.217,46.95,71.07,-7018.8,6126.32,5395.04,-439.98,220.1,-369.26
1861,1.0,0.0,1.0,0.0,1.0,47.39,70.86,-6710.8,5842.32,5243.04,-584.98,-6.9,-407.26
1881,1.0,0.0,1.0,0.0,0.273,47.82,70.64,-6670.8,5766.32,5295.04,-602.98,58.1,-557.26
1899,0.854,0.0,1.0,0.0,0.384,48.26,70.42,-6902.8,5690.32,5199.04,-746.98,-105.9,-474.26
1919,1.0,0.0,1.0,0.0,0.273,48.69,70.19,-6718.8,5470.32,5343.04,-430.98,-38.9,-51.26
1941,0.708,0.0,1.0,0.0,0.273,49.16,69.94,-6718.8,5354.32,5583.04,47.02,257.1,119.74
1961,1.0,0.0,1.0,0.0,0.0,49.6,69.84,-6726.8,5646.32,5163.04,-167.98,338.1,153.74
1981,0.27,0.0,1.0,0.0,0.329,50.05,69.67,-7102.8,5502.32,5187.04,-508.98,96.1,168.74
2000,1.0,0.0,1.0,0.0,0.552,50.38,69.47,-6862.8,5446.32,5307.04,-390.98,-437.9,415.74
2020,0.708,0.0,1.0,0.0,1.0,50.68,69.33,-6822.8,5454.32,5275.04,-190.98,-554.9,568.74
2040,1.0,0.0,1.0,0.0,1.0,50.92,69.23,-6782.8,5738.32,5439.04,216.02,-583.9,637.74
2061,1.0,0.0,1.0,0.0,1.0,51.14,69.08,-6522.8,5830.32,5635.04,116.02,-260.9,383.74
2081,1.0,0.0,1.0,0.0,0.329,51.41,68.88,-6506.8,5770.32,5467.04,-504.98,27.1,-182.26
2100,1.0,0.0,1.0,0.0,0.384,51.72,68.63,-6678.8,5662.32,5379.04,-1058.98,42.1,-333.26
2121,1.0,0.0,1.0,0.0,0.44,52.03,68.38,-6518.8,5386.32,5363.04,-809.98,35.1,-78.26
2140,0.562,0.0,1.0,0.0,1.0,52.28,68.17,-6802.8,5686.32,5567.04,-526.98,-182.9,456.74
2161,0.854,0.0,1.0,0.0,0.106,52.48,68.11,-6514.8,5610.32,5471.04,306.02,-319.9,939.74
2181,0.562,0.0,1.0,0.0,0.273,52.64,68.03,-6698.8,6078.32,5787.04,383.02,-117.9,822.74
2201,1.0,0.148,1.0,0.0,1.0,52.81,67.94,-6710.8,6074.32,5595.04,-46.98,-116.9,536.74
2220,0.854,0.0,1.0,0.0,0.273,52.93,67.82,-6738.8,6430.32,5747.04,-264.98,-71.9,363.74
2240,1.0,0.0,1.0,0.0,0.273,53.05,67.67,-6574.8,6182.32,5707.04,-393.98,-156.9,195.74
2261,0.708,0.0,1.0,0.0,0.273,53.16,67.53,-6398.8,6174.32,5723.04,-315.98,-14.9,-4.26
2281,0.416,0.0,1.0,0.0,1.0,53.29,67.43,-6574.8,6114.32,5655.04,-234.98,-51.9,-29.26
2300,0.562,0.0,1.0,0.0,1.0,53.43,67.35,-6490.8,6026.32,5571.04,-107.98,-74.9,12.74
2321,1.0,0.0,1.0,0.0,0.44,53.53,67.23,-6642.8,6202.32,5739.04,-257.98,-122.9,-17.26
2340,0.124,0.0,0.0,0.0,0.273,53.65,67.19,-6506.8,6038.32,5639.04,149.02,-77.9,219.74
2361,1.0,0.0,1.0,0.0,0.273,53.75,67.11,-6582.8,6098.32,5915.04,399.02,-41.9,395.74
2380,0.0,0.0,1.0,0.0,0.44,53.84,67.09,-6350.8,6134.32,5695.04,307.02,-28.9,243.74
2401,0.416,0.148,1.0,0.0,0.384,53.94,67.03,-6442.8,6134.32,5563.04,-191.98,11.1,-53.26
2420,0.416,0.392,0.816,0.012,0.44,54.07,66.97,-6558.8,6118.32,5595.04,-119.98,138.1,-286.26
2441,0.562,0.0,1.0,0.0,0.44,54.17,66.91,-6414.8,5986.32,5507.04,-214.98,-66.9,-294.26
2460,0.562,0.0,1.0,0.0,0.273,54.28,66.87,-6530.8,6014.32,5527.04,-51.98,18.1,-212.26
2480,0.708,0.0,1.0,0.0,0.329,54.4,66.87,-6670.8,5874.32,5563.04,372.02,-116.9,-38.26
2501,1.0,0.0,1.0,0.0,0.273,54.43,66.91,-6326.8,6090.32,5571.04,506.02,-250.9,-119.26
2520,0.708,0.0,1.0,0.0,0.273,54.52,66.91,-6510.8,5966.32,5399.04,-54.98,-193.9,-509.26
2541,0.708,0.098,1.0,0.0,0.273,54.61,66.87,-6706.8,5806.32,5371.04,-166.98,-380.9,-427.26
2561,0.27,0.0,1.0,0.0,0.329,54.69,66.83,-6390.8,5506.32,5499.04,314.02,-453.9,-49.26
2580,0.854,0.148,1.0,0.0,1.0,54.8,66.85,-6566.8,5758.32,5475.04,444.02,-152.9,22.74
2601,0.562,0.0,0.0,0.0,0.329,54.9,66.82,-6742.8,5866.32,5595.04,224.02,-185.9,-127.26
2620,0.416,0.0,1.0,0.0,0.384,54.97,66.72,-6562.8,5810.32,5767.04,104.02,-164.9,-283.26
2641,0.416,0.014,1.0,0.0,0.329,55.09,66.58,-6454.8,5582.32,5639.04,-185.98,2.1,-336.26
2661,0.27,0.0,1.0,0.0,1.0,55.22,66.45,-6534.8,5606.32,5731.04,-25.98,90.1,-130.26
2681,0.562,0.0,1.0,0.0,0.44,55.35,66.36,-6542.8,5702.32,5651.04,-5.98,250.1,-57.26
2700,0.562,0.0,1.0,0.0,0.329,55.5,66.23,-6702.8,5666.32,5687.04,-155.98,228.1,-160.26
2720,0.854,0.0,1.0,0.0,0.44,55.61,66.11,-6594.8,5710.32,5647.04,-319.98,156.1,-114.26
2739,1.0,0.0,1.0,0.0,0.44,55.72,66.02,-6622.8,5710.32,5699.04,0.02,151.1,142.74
2761,0.27,0.0,1.0,0.0,0.273,55.8,66.0,-6650.8,5802.32,5603.04,146.02,39.1,304.74
2780,0.708,0.0,1.0,0.0,1.0,55.83,65.97,-6630.8,5926.32,5679.04,135.02,-138.9,369.74
2801,1.0,0.0,1.0,0.0,0.44,55.83,65.95,-6594.8,6070.32,5735.04,214.02,-177.9,350.74
2821,1.0,0.0,1.0,0.0,0.273,55.8,65.95,-6586.8,6298.32,5743.04,138.02,-134.9,157.74
2839,0.562,0.0,1.0,0.0,1.0,55.82,65.9,-6510.8,6058.32,5795.04,88.02,47.1,-58.26
2860,0.124,0.0,1.0,0.0,1.0,55.87,65.8,-6766.8,6142.32,5943.04,-61.98,241.1,-239.26
2880,0.562,0.0,1.0,0.0,1.0,55.9,65.67,-6830.8,6086.32,5959.04,-216.98,46.1,-191.26
2901,0.854,0.0,1.0,0.0,1.0,55.91,65.7,-6482.8,6122.32,5535.04,15.02,31.1,-120.26
2920,0.124,0.0,1.0,0.0,0.44,55.94,65.63,-6718.8,6150.32,5815.04,-130.98,169.1,-187.26
2941,0.124,0.0,0.0,0.0,0.217,55.96,65.59,-6610.8,6098.32,5847.04,107.02,165.1,-123.26
2961,1.0,0.0,1.0,0.0,1.0,55.97,65.53,-6510.8,6042.32,5927.04,159.02,118.1,-143.26
2980,0.416,0.0,1.0,0.0,0.384,56.02,65.51,-6410.8,5826.32,5599.04,29.02,172.1,-298.26
