timestamp,flex_1,flex_2,flex_3,flex_4,flex_5,kalman_pitch,kalman_roll,acc_x,acc_y,acc_z,gyro_x,gyro_y,gyro_z
0,1.0,0.0,0.0,0.383,0.0,37.8,74.63,3237.28,-7064.56,19497.52,637.26,1134.38,148.46
20,1.0,0.026,0.0,0.103,0.0,30.58,50.08,3673.28,-6656.56,19213.52,1737.26,877.38,73.46
40,1.0,0.0,0.0,0.083,0.0,26.61,37.42,3657.28,-6316.56,19457.52,2065.26,80.38,62.46
60,1.0,0.003,0.0,0.168,0.0,23.92,30.03,3969.28,-5492.56,18957.52,1296.26,-323.62,166.46
80,1.0,0.0,0.0,0.048,0.0,22.1,24.55,3745.28,-5804.56,19245.52,41.26,-467.62,-368.54
100,1.0,0.018,0.0,0.033,0.274,20.55,20.4,4025.28,-5772.56,19365.52,-573.74,-556.62,-88.54
120,1.0,0.0,0.0,0.068,0.0,19.61,16.77,3381.28,-6488.56,19585.52,-934.74,-357.62,-108.54
140,1.0,0.049,0.0,0.108,0.0,18.68,13.72,3705.28,-6860.56,19529.52,-460.74,-539.62,-214.54
160,1.0,0.0,0.0,0.0,0.0,17.82,11.12,3997.28,-7084.56,19301.52,-122.74,-461.62,-188.54
180,1.0,0.0,0.0,0.083,0.0,17.11,8.91,3817.28,-6968.56,19701.52,-404.74,-382.62,-267.54
200,1.0,0.0,0.0,0.058,0.0,16.62,6.9,3209.28,-6884.56,20145.52,-1324.74,-475.62,-132.54
220,1.0,0.003,0.0,0.043,0.0,16.47,4.73,2869.28,-7836.56,20773.52,-2187.74,1419.38,118.46
240,1.0,0.0,0.0,0.083,0.0,16.59,2.62,2025.28,-8544.56,21617.52,-2159.74,2178.38,1009.46
260,1.0,0.034,0.0,0.0,0.0,16.9,0.8,2209.28,-9348.56,21613.52,-161.74,4011.38,2157.46
280,1.0,0.0,0.0,0.083,0.0,17.4,-0.36,1741.28,-8884.56,22425.52,2342.26,5244.38,4690.46
300,1.0,0.01,0.0,0.058,0.0,18.17,-0.95,1289.28,-8484.56,23121.52,4891.26,6991.38,6183.46
320,1.0,0.01,0.0,0.078,0.0,19.31,-1.01,801.28,-7316.56,22989.52,6589.26,9258.38,7687.46
340,1.0,0.003,0.0,0.073,0.0,20.85,-0.72,-1210.72,-6088.56,23217.52,7258.26,10314.38,8059.46
360,1.0,0.018,0.0,0.068,0.0,22.5,-0.05,-1566.72,-4720.56,22897.52,8141.26,11259.38,9054.46
380,1.0,0.0,0.0,0.078,0.0,24.15,0.97,-614.72,-3328.56,21777.52,8816.26,12616.38,10124.46
400,1.0,0.0,0.0,0.083,0.0,26.03,1.87,-1066.72,-3488.56,20573.52,8433.26,13715.38,9188.46
420,1.0,0.01,0.0,0.088,0.0,27.88,2.75,-634.72,-3092.56,19553.52,7839.26,14227.38,11566.46
440,1.0,0.018,0.0,0.038,0.0,30.0,3.73,-1178.72,-3816.56,19085.52,9940.26,15869.38,11486.46
460,0.688,0.01,0.0,0.088,0.0,32.01,5.3,-2342.72,-2820.56,19257.52,12968.26,14928.38,11315.46
480,1.0,0.018,0.0,0.033,0.0,33.9,7.82,-606.72,-1092.56,17909.52,17025.26,16335.38,10241.46
500,1.0,0.065,0.0,0.043,0.0,36.02,10.62,-2150.72,851.44,16845.52,16510.26,16828.38,9099.46
520,1.0,0.0,0.0,0.108,0.0,38.13,13.31,-1570.72,1427.44,16237.52,15497.26,18078.38,7204.46
540,1.0,0.018,0.0,0.038,0.0,40.16,15.86,-1062.72,2295.44,14789.52,13050.26,18390.38,6735.46
560,1.0,0.003,0.0,0.063,0.0,42.23,18.17,-850.72,1375.44,13269.52,11875.26,18424.38,6597.46
580,1.0,0.018,0.0,0.058,0.0,44.27,20.3,-2038.72,467.44,13101.52,12770.26,16893.38,6172.46
600,1.0,0.0,0.0,0.083,0.0,46.33,22.57,-2378.72,-1016.56,11693.52,15450.26,15366.38,5712.46
620,1.0,0.0,0.0,0.058,0.0,48.01,25.86,-1214.72,951.44,10557.52,18030.26,15271.38,4858.46
640,1.0,0.0,0.0,0.288,0.0,49.45,29.61,-914.72,2767.44,9345.52,17621.26,15506.38,3596.46
660,1.0,0.0,0.0,0.103,0.0,51.07,33.1,-1658.72,2503.44,8693.52,16139.26,15750.38,2784.46
680,1.0,0.003,0.844,0.033,0.0,52.54,36.52,-1606.72,2771.44,8209.52,15568.26,15522.38,2082.46
700,1.0,0.0,0.0,0.038,0.0,53.63,39.82,-1162.72,2843.44,7825.52,14983.26,14020.38,1870.46
720,1.0,0.057,0.0,0.053,0.0,54.55,43.2,-1298.72,3283.44,6873.52,14173.26,13175.38,869.46
740,1.0,0.0,0.0,0.063,0.0,55.28,46.37,-1530.72,4231.44,6229.52,11829.26,12849.38,-469.54
760,1.0,0.0,0.0,0.038,0.0,55.71,49.2,-1538.72,4047.44,5261.52,8474.26,10813.38,-1497.54
780,1.0,0.0,0.0,0.033,0.0,56.26,51.86,-1610.72,2159.44,4489.52,6824.26,9324.38,-2186.54
800,1.0,0.0,0.0,0.033,0.0,56.53,54.92,-394.72,2443.44,3369.52,7243.26,9584.38,-3236.54
820,1.0,0.0,0.0,0.033,0.0,56.69,57.68,-762.72,3723.44,3341.52,6113.26,10176.38,-3783.54
840,1.0,0.0,0.0,0.063,0.0,56.85,60.2,-1942.72,3643.44,3281.52,5104.26,8790.38,-3632.54
860,1.0,0.0,0.0,0.023,0.0,56.73,62.71,-2130.72,3671.44,2797.52,4594.26,6908.38,-3377.54
880,1.0,0.049,0.0,0.088,0.0,56.37,65.19,-1846.72,3079.44,2273.52,3694.26,4938.38,-3249.54
900,1.0,0.0,0.0,0.018,0.0,55.88,67.7,-1514.72,3019.44,1737.52,3225.26,4461.38,-3405.54
920,1.0,0.018,0.516,0.033,0.0,55.53,70.11,-1998.72,2699.44,1445.52,2411.26,4440.38,-3572.54
940,1.0,0.018,0.0,0.113,0.0,55.13,72.15,-2194.72,2967.44,2097.52,2109.26,4006.38,-3518.54
960,1.0,0.018,0.0,0.033,0.0,54.75,74.1,-2582.72,2103.44,2061.52,1616.26,2507.38,-3277.54
980,1.0,0.0,0.0,0.068,0.0,54.03,76.01,-1930.72,2495.44,2021.52,1934.26,1269.38,-3184.54
1000,1.0,0.0,0.0,0.023,0.0,53.43,78.32,-5198.72,3243.44,33.52,1187.26,264.38,-3051.54
1020,1.0,0.0,0.0,0.028,0.0,53.1,80.35,-11174.72,5055.44,-618.48,24.26,-175.62,-1558.54
1040,1.0,0.0,0.0,0.033,0.0,52.64,81.81,-7574.72,3975.44,1105.52,-860.74,-562.62,1113.46
1060,1.0,0.0,0.0,0.0,0.0,51.96,83.14,-3150.72,1831.44,1653.52,-1363.74,-1362.62,2522.46
1079,1.0,0.0,0.0,0.063,0.0,51.32,84.61,-3490.72,1595.44,1705.52,-67.74,-1931.62,3507.46
1100,1.0,0.01,0.762,0.033,0.0,50.46,86.32,-4050.72,3063.44,1325.52,1996.26,-2413.62,4032.46
1120,1.0,0.0,0.0,0.033,0.0,49.5,87.97,-4186.72,3699.44,1209.52,2222.26,-2793.62,4084.46
1140,1.0,0.0,0.0,0.048,0.0,48.58,89.26,-4546.72,4219.44,1457.52,995.26,-2760.62,3432.46
1160,1.0,0.01,0.0,0.108,0.274,47.79,90.28,-5478.72,4383.44,1089.52,-1121.74,-2799.62,2557.46
1180,1.0,0.0,0.0,0.043,0.0,47.06,91.05,-4814.72,4163.44,1281.52,-2248.74,-2364.62,1782.46
1200,1.0,0.0,0.0,0.033,0.0,46.37,91.83,-4998.72,4247.44,1217.52,-2174.74,-2486.62,1662.46
1220,1.0,0.0,0.0,0.028,0.0,45.78,92.68,-4994.72,4035.44,1681.52,-553.74,-2366.62,1808.46
1240,1.0,0.0,0.0,0.033,0.0,45.27,93.65,-5538.72,4823.44,1897.52,1266.26,-1802.62,1633.46
1260,1.0,0.0,0.0,0.033,0.0,44.83,94.61,-5278.72,5059.44,1945.52,1742.26,-1132.62,1049.46
1280,1.0,0.0,0.189,0.033,0.0,44.52,95.48,-5038.72,4975.44,1981.52,1372.26,-336.62,183.46
1300,1.0,0.0,0.0,0.083,0.0,44.38,96.27,-5098.72,4527.44,1957.52,1002.26,232.38,-578.54
1320,1.0,0.0,0.025,0.038,0.0,44.38,97.03,-4874.72,4179.44,2025.52,1068.26,923.38,-973.54
1340,1.0,0.0,0.0,0.083,0.0,44.44,97.9,-4650.72,3635.44,1589.52,1024.26,1050.38,-1096.54
1360,1.0,0.0,0.0,0.043,0.0,44.57,98.75,-4838.72,3463.44,1661.52,1153.26,1161.38,-909.54
1380,1.0,0.003,0.0,0.033,0.0,44.68,99.58,-4718.72,3303.44,1605.52,1143.26,867.38,-638.54
1400,1.0,0.0,0.0,0.033,0.0,44.71,100.35,-4502.72,3207.44,1549.52,848.26,479.38,-337.54
1420,1.0,0.01,0.0,0.028,0.0,44.72,101.1,-4534.72,3191.44,1329.52,469.26,264.38,-48.54
1440,1.0,0.0,0.0,0.023,0.0,44.69,101.73,-4390.72,3303.44,1389.52,112.26,226.38,295.46
1460,1.0,0.003,0.0,0.033,0.0,44.62,102.3,-4502.72,3439.44,1369.52,-108.74,-81.62,426.46
1480,1.0,0.003,0.0,0.058,0.0,44.5,102.86,-4226.72,3603.44,1341.52,87.26,-131.62,550.46
1500,1.0,0.0,0.0,0.0,0.0,44.37,103.41,-4434.72,3751.44,1213.52,21.26,-281.62,553.46
1520,1.0,0.026,0.0,0.058,0.0,44.22,103.85,-4594.72,3915.44,1517.52,213.26,-523.62,569.46
1540,1.0,0.003,0.0,0.033,0.0,44.06,104.26,-4746.72,4139.44,1593.52,325.26,-619.62,471.46
1559,1.0,0.0,0.352,0.0,0.0,43.86,104.6,-4418.72,4267.44,1717.52,356.26,-637.62,446.46
1580,1.0,0.01,0.0,0.123,0.0,43.66,104.93,-4298.72,4307.44,1669.52,294.26,-568.62,416.46
1600,1.0,0.0,0.0,0.093,0.0,43.56,105.22,-4654.72,4151.44,1589.52,32.26,-393.62,178.46
1620,1.0,0.0,0.0,0.048,0.0,43.45,105.4,-4430.72,4247.44,1821.52,-161.74,-348.62,-145.54
1640,1.0,0.01,0.0,0.0,0.0,43.36,105.53,-4286.72,4079.44,1965.52,-220.74,-390.62,-148.54
1660,1.0,0.0,0.0,0.048,0.0,43.3,105.64,-4498.72,3959.44,1937.52,-315.74,-476.62,-162.54
1680,1.0,0.0,0.0,0.048,0.0,43.29,105.76,-4746.72,3875.44,1889.52,-355.74,-559.62,-146.54
1700,1.0,0.0,0.0,0.033,0.0,43.26,105.93,-4458.72,3891.44,1889.52,41.26,-436.62,-68.54
1719,1.0,0.018,0.0,0.038,0.0,43.27,106.05,-4586.72,3979.44,2021.52,176.26,-255.62,63.46
1740,1.0,0.0,0.0,0.033,0.0,43.3,106.16,-4622.72,4047.44,1973.52,40.26,-125.62,83.46
1760,1.0,0.0,0.0,0.048,0.0,43.31,106.24,-4706.72,4183.44,1953.52,-71.74,-253.62,113.46
1780,1.0,0.0,0.0,0.038,0.0,43.31,106.29,-4650.72,4067.44,2045.52,-59.74,-417.62,94.46
1800,1.0,0.003,0.0,0.033,0.317,43.3,106.37,-4562.72,3919.44,2001.52,84.26,-574.62,45.46
1820,1.0,0.0,0.0,0.043,0.0,43.27,106.43,-4426.72,4147.44,2089.52,238.26,-473.62,-28.54
1840,1.0,0.018,0.0,0.033,0.0,43.29,106.46,-4510.72,4187.44,2213.52,364.26,-284.62,-90.54
1860,1.0,0.034,0.0,0.043,0.0,43.36,106.51,-4682.72,4211.44,2097.52,345.26,18.38,-137.54
1880,1.0,0.018,0.0,0.033,0.0,43.46,106.58,-4698.72,4123.44,2033.52,398.26,90.38,-179.54
1900,1.0,0.01,0.0,0.028,0.0,43.58,106.63,-4690.72,4079.44,2121.52,427.26,126.38,-274.54
1920,1.0,0.0,0.0,0.038,0.0,43.67,106.69,-4586.72,4095.44,2017.52,414.26,67.38,-280.54
1940,1.0,0.0,0.0,0.033,0.0,43.77,106.81,-4506.72,4027.44,1877.52,577.26,190.38,-296.54
1960,1.0,0.0,0.0,0.033,0.0,43.88,106.9,-4546.72,3995.44,2021.52,682.26,92.38,-327.54
1980,1.0,0.01,0.0,0.033,0.0,43.98,107.11,-4478.72,3879.44,1489.52,573.26,127.38,-457.54
2000,1.0,0.0,0.0,0.063,0.0,44.13,107.26,-4654.72,3863.44,1557.52,360.26,211.38,-492.54
2020,1.0,0.0,0.0,0.033,0.0,44.29,107.37,-4774.72,3727.44,1733.52,416.26,99.38,-374.54
2040,1.0,0.018,0.0,0.033,0.0,44.43,107.44,-4758.72,3739.44,1845.52,486.26,-43.62,-269.54
2060,1.0,0.026,0.0,0.023,0.0,44.56,107.57,-4634.72,3619.44,1661.52,502.26,-46.62,-124.54
2080,1.0,0.026,0.0,0.033,0.0,44.7,107.71,-4582.72,3635.44,1625.52,565.26,68.38,-39.54
2100,1.0,0.0,0.025,0.043,0.0,44.9,107.77,-4762.72,3623.44,1777.52,417.26,289.38,17.46
2120,1.0,0.018,0.0,0.043,0.0,45.07,107.8,-4782.72,3735.44,1833.52,482.26,195.38,37.46
2139,1.0,0.0,0.27,0.038,0.0,45.21,107.89,-4562.72,3787.44,1577.52,422.26,254.38,98.46
2160,1.0,0.0,0.0,0.0,0.0,45.36,107.98,-4614.72,3703.44,1441.52,174.26,290.38,124.46
2180,1.0,0.0,0.0,0.038,0.0,45.54,108.12,-4606.72,3647.44,1253.52,158.26,458.38,112.46
2200,1.0,0.0,0.0,0.033,0.274,45.68,108.25,-4578.72,3639.44,1321.52,322.26,266.38,202.46
2220,1.0,0.018,0.516,0.033,0.0,45.88,108.31,-4754.72,3719.44,1509.52,323.26,514.38,142.46
2240,1.0,0.042,0.0,0.048,0.0,46.04,108.25,-4894.72,4075.44,1753.52,125.26,491.38,18.46
2260,1.0,0.026,0.0,0.033,0.0,46.11,108.1,-4874.72,4011.44,1829.52,-349.74,-132.62,-13.54
2280,1.0,0.0,0.0,0.133,0.0,46.12,108.01,-4802.72,3747.44,1509.52,-633.74,-732.62,55.46
2300,1.0,0.003,0.0,0.063,0.274,46.12,108.04,-4326.72,3527.44,1241.52,-445.74,-616.62,164.46
2319,1.0,0.0,0.0,0.193,0.0,46.21,108.1,-4366.72,3535.44,1381.52,0.26,1.38,147.46
2340,1.0,0.0,0.0,0.118,0.0,46.38,108.0,-4802.72,3787.44,1837.52,6.26,261.38,173.46
2360,1.0,0.0,0.0,0.033,0.0,46.48,107.83,-5082.72,3867.44,2057.52,-50.74,-285.62,291.46
2380,1.0,0.003,0.0,0.063,0.0,46.47,107.66,-4710.72,3939.44,2009.52,-66.74,-740.62,341.46
2400,1.0,0.0,0.0,0.033,0.0,46.44,107.49,-4470.72,4079.44,1865.52,-376.74,-575.62,333.46
2420,1.0,0.026,0.0,0.033,0.0,46.48,107.39,-4430.72,3971.44,1553.52,-507.74,-161.62,193.46
2440,1.0,0.0,0.0,0.048,0.0,46.64,107.25,-4866.72,4003.44,1785.52,-343.74,393.38,158.46
2460,1.0,0.0,0.0,0.038,0.0,46.75,107.09,-4790.72,4203.44,1909.52,-223.74,223.38,77.46
2480,1.0,0.01,0.0,0.0,0.0,46.82,106.99,-4582.72,4087.44,1765.52,-40.74,24.38,49.46
2500,1.0,0.0,0.0,0.103,0.0,46.86,106.96,-4338.72,4031.44,1605.52,34.26,57.38,-15.54
2520,1.0,0.0,0.0,0.023,0.0,46.94,106.9,-4490.72,4091.44,1709.52,88.26,212.38,-65.54
2540,1.0,0.018,0.0,0.038,0.0,47.05,106.82,-4506.72,3915.44,1757.52,13.26,232.38,-131.54
2560,1.0,0.0,0.0,0.033,0.0,47.15,106.73,-4542.72,3923.44,1741.52,-94.74,113.38,-53.54
2580,1.0,0.0,0.0,0.038,0.0,47.26,106.68,-4686.72,3859.44,1709.52,42.26,126.38,60.46
2600,1.0,0.003,0.0,0.038,0.0,47.35,106.66,-4530.72,3939.44,1525.52,34.26,178.38,95.46
2620,1.0,0.0,0.0,0.103,0.0,47.43,106.65,-4450.72,3827.44,1609.52,155.26,47.38,82.46
2640,1.0,0.018,0.0,0.103,0.0,47.45,106.69,-4366.72,3879.44,1313.52,58.26,-123.62,-50.54
2660,1.0,0.01,0.0,0.158,0.0,47.48,106.64,-4618.72,3943.44,1585.52,-1.74,-338.62,18.46
2680,1.0,0.018,0.0,0.038,0.0,47.51,106.56,-4654.72,3883.44,1665.52,-148.74,-403.62,13.46
2700,1.0,0.026,0.0,0.0,0.0,47.49,106.5,-4446.72,3699.44,1445.52,-409.74,-692.62,36.46
2720,1.0,0.0,0.0,0.063,0.0,47.52,106.41,-4514.72,3747.44,1665.52,-268.74,-501.62,74.46
2740,1.0,0.003,0.0,0.033,0.0,47.58,106.26,-4670.72,3859.44,1841.52,-234.74,-278.62,198.46
2760,1.0,0.0,0.0,0.0,0.0,47.66,106.11,-4842.72,3823.44,1893.52,-250.74,-378.62,261.46
2780,1.0,0.018,0.0,0.033,0.0,47.71,105.91,-4842.72,3891.44,1985.52,-354.74,-505.62,272.46
2800,1.0,0.0,0.0,0.038,0.0,47.68,105.73,-4682.72,4103.44,1801.52,-500.74,-737.62,247.46
2820,1.0,0.018,0.0,0.048,0.0,47.7,105.56,-4838.72,4031.44,1825.52,-463.74,-564.62,367.46
2840,1.0,0.0,0.0,0.078,0.0,47.74,105.33,-4850.72,4103.44,2053.52,-471.74,-466.62,337.46
2860,1.0,0.0,0.0,0.138,0.0,47.77,105.14,-4674.72,3987.44,2001.52,-388.74,-504.62,249.46
2880,1.0,0.018,0.0,0.033,0.0,47.8,104.96,-4526.72,4059.44,2085.52,-145.74,-362.62,179.46
2900,1.0,0.01,0.0,0.118,0.0,47.88,104.78,-4642.72,3951.44,2101.52,-222.74,-182.62,125.46
2920,1.0,0.0,0.0,0.033,0.0,47.98,104.57,-4670.72,3867.44,2197.52,-267.74,-176.62,141.46
2940,1.0,0.01,0.0,0.033,0.0,48.08,104.38,-4754.72,3879.44,2097.52,-357.74,-154.62,120.46
2960,1.0,0.018,0.0,0.033,0.0,48.18,104.2,-4558.72,3831.44,2057.52,-433.74,-118.62,248.46
2980,1.0,0.0,0.0,0.053,0.0,48.29,104.08,-4694.72,3627.44,1945.52,-292.74,-209.62,383.46
