timestamp,flex_1,flex_2,flex_3,flex_4,flex_5,kalman_pitch,kalman_roll,acc_x,acc_y,acc_z,gyro_x,gyro_y,gyro_z
0,1.0,0.0,0.0,0.108,0.0,30.06,33.67,3181.28,-6992.56,19077.52,-297.74,707.38,-227.54
20,1.0,0.0,0.0,0.103,0.0,24.92,17.83,3033.28,-7268.56,19121.52,-175.74,1029.38,-139.54
39,1.0,0.0,0.0,0.113,0.0,22.63,11.23,3065.28,-7064.56,19425.52,10.26,1276.38,-137.54
59,1.0,0.0,0.0,0.103,0.0,21.62,7.74,2761.28,-6752.56,19333.52,104.26,1425.38,193.46
78,1.0,0.0,0.598,0.098,0.0,20.99,5.34,2689.28,-6860.56,18881.52,-66.74,450.38,218.46
98,1.0,0.0,0.0,0.063,0.0,20.19,3.72,3101.28,-6568.56,19273.52,-681.74,55.38,154.46
119,1.0,0.0,0.0,0.113,0.0,19.45,1.84,3145.28,-7592.56,19825.52,-1565.74,-65.62,-175.54
138,1.0,0.0,0.0,0.113,0.0,18.86,0.33,3413.28,-7628.56,19889.52,-1451.74,831.38,-78.54
160,1.0,0.0,0.0,0.033,0.0,18.47,-1.25,3533.28,-8304.56,19413.52,-1525.74,1633.38,816.46
180,1.0,0.0,0.0,0.153,0.0,18.3,-2.81,3385.28,-9272.56,20261.52,-965.74,2952.38,1005.46
200,1.0,0.0,0.0,0.273,0.0,18.6,-3.67,2569.28,-8140.56,20917.52,-339.74,4606.38,891.46
219,1.0,0.0,0.0,0.098,0.0,19.35,-4.28,1961.28,-7880.56,20801.52,201.26,6715.38,1376.46
240,1.0,0.0,0.0,0.123,0.0,20.67,-4.66,457.28,-7744.56,21085.52,1148.26,8745.38,1776.46
259,1.0,0.0,0.0,0.083,0.0,21.98,-4.9,-110.72,-8068.56,20749.52,2524.26,8340.38,3911.46
279,1.0,0.0,0.189,0.108,0.0,23.48,-4.66,-1234.72,-7324.56,20989.52,4372.26,8926.38,5715.46
299,1.0,0.0,0.0,0.163,0.274,24.69,-4.34,-1330.72,-8004.56,21693.52,6155.26,8226.38,6795.46
320,1.0,0.0,0.0,0.263,0.0,26.09,-3.47,-1458.72,-6932.56,21829.52,8391.26,9959.38,6696.46
340,1.0,0.0,0.0,0.388,0.0,27.79,-2.18,-2226.72,-4984.56,21725.52,8610.26,11873.38,6612.46
359,1.0,0.0,0.0,0.388,0.0,29.83,-0.99,-3058.72,-3840.56,21597.52,6779.26,14019.38,6217.46
379,1.0,0.0,0.0,0.283,0.0,31.78,-0.23,-3498.72,-4304.56,21053.52,5020.26,13570.38,6713.46
400,1.0,0.0,0.926,0.228,0.274,33.74,0.82,-3102.72,-3396.56,19605.52,5555.26,13940.38,7481.46
419,1.0,0.0,0.0,0.128,1.0,35.85,1.61,-3542.72,-4336.56,19065.52,5724.26,14897.38,8016.46
439,1.0,0.0,0.0,0.098,0.0,37.96,2.67,-3110.72,-4028.56,18629.52,7267.26,16008.38,8547.46
460,1.0,0.0,0.0,0.058,0.615,40.28,3.95,-3458.72,-3428.56,17101.52,7760.26,16790.38,9328.46
480,0.775,0.0,0.0,0.113,0.0,42.69,5.05,-3270.72,-3664.56,15717.52,6980.26,17321.38,9089.46
500,0.955,0.0,0.0,0.043,0.0,44.99,6.29,-4270.72,-3088.56,15257.52,7015.26,16192.38,10172.46
519,1.0,0.0,0.0,0.0,0.0,47.33,7.93,-5226.72,-2252.56,14793.52,8235.26,16247.38,11528.46
539,0.824,0.0,0.0,0.038,0.0,49.53,9.53,-4210.72,-2852.56,13445.52,8938.26,15684.38,12208.46
560,0.976,0.0,0.0,0.033,0.0,51.33,11.44,-2518.72,-3024.56,11661.52,10518.26,13331.38,13998.46
579,0.853,0.0,0.0,0.148,0.0,53.1,13.51,-1834.72,-4364.56,11809.52,16534.26,14492.38,12911.46
600,1.0,0.0,0.0,0.178,0.0,54.95,17.71,-2238.72,-492.56,10613.52,20221.26,16161.38,10884.46
620,1.0,0.0,0.0,0.158,0.0,56.8,22.58,-2014.72,1995.44,8905.52,18221.26,18323.38,8335.46
640,1.0,0.0,0.0,0.123,0.0,58.51,26.72,-2698.72,1635.44,8389.52,14243.26,16698.38,6664.46
660,1.0,0.0,0.0,0.078,0.0,59.59,30.66,-2358.72,2187.44,7937.52,12419.26,13878.38,5816.46
680,1.0,0.0,0.0,0.083,0.0,60.17,34.89,-1854.72,2343.44,6677.52,12418.26,11113.38,5081.46
699,1.0,0.0,0.0,0.073,0.0,60.93,39.49,-2434.72,2315.44,5557.52,13209.26,11619.38,3665.46
719,1.0,0.0,0.0,0.118,0.0,61.55,44.1,-1510.72,3359.44,4993.52,12843.26,13502.38,2046.46
740,1.0,0.0,0.0,0.093,0.0,62.01,48.37,-1886.72,4139.44,4749.52,11193.26,13428.38,918.46
760,1.0,0.0,0.0,0.033,0.0,62.4,52.54,-2466.72,3559.44,3997.52,10180.26,11776.38,664.46
779,0.803,0.0,0.0,0.103,0.0,62.56,56.81,-2102.72,3263.44,3293.52,10331.26,10517.38,272.46
800,1.0,0.049,0.0,0.003,0.0,62.56,61.08,-2066.72,3247.44,2625.52,9987.26,9772.38,-358.54
819,1.0,0.0,0.0,0.038,0.0,62.37,65.17,-2718.72,3583.44,2429.52,9887.26,8342.38,-486.54
840,1.0,0.0,0.0,0.0,0.0,61.87,69.26,-2434.72,3351.44,1961.52,9937.26,6320.38,-357.54
860,1.0,0.0,0.0,0.018,0.0,60.97,73.26,-1654.72,3223.44,1673.52,9995.26,4435.38,-263.54
880,1.0,0.0,0.0,0.003,0.274,59.85,77.18,-1262.72,3323.44,1197.52,9694.26,3387.38,-182.54
898,1.0,0.0,0.0,0.003,0.0,58.64,80.99,-1002.72,3023.44,769.52,9073.26,2632.38,-806.54
920,1.0,0.0,0.0,0.0,0.0,57.27,84.57,-442.72,3015.44,521.52,8255.26,2024.38,-1617.54
940,1.0,0.0,0.025,0.0,0.0,56.06,87.63,-834.72,2675.44,677.52,5960.26,1698.38,-2350.54
959,1.0,0.0,0.0,0.008,0.0,54.9,90.02,-1882.72,2531.44,1353.52,4037.26,-302.62,-2567.54
980,1.0,0.0,0.0,0.0,0.0,53.33,92.33,-1582.72,1683.44,1085.52,2902.26,-4246.62,-2075.54
999,1.0,0.0,0.0,0.033,0.0,51.52,95.09,-1514.72,1087.44,-74.48,2914.26,-6552.62,-1559.54
1020,0.0,0.0,0.0,0.0,0.0,50.19,98.14,-10326.72,3403.44,-3610.48,1764.26,-7137.62,-871.54
1039,1.0,0.0,0.0,0.013,0.0,48.89,99.64,-12454.72,7059.44,-242.48,985.26,-7208.62,3046.46
1060,1.0,0.0,0.0,0.008,0.743,47.6,100.18,-5378.72,2455.44,2745.52,-848.74,-8370.62,5995.46
1079,1.0,0.0,0.0,0.0,0.0,45.91,101.39,-1858.72,1695.44,2285.52,2459.26,-9149.62,7688.46
1100,1.0,0.0,0.0,0.0,0.0,44.26,103.09,-2462.72,3459.44,1437.52,5116.26,-7769.62,7740.46
1119,1.0,0.0,0.0,0.558,0.0,42.82,104.23,-3402.72,6267.44,2041.52,4294.26,-5107.62,6296.46
1140,1.0,0.0,0.0,0.348,0.0,41.8,104.58,-4854.72,6595.44,2869.52,1053.26,-4064.62,4133.46
1159,1.0,0.0,0.0,0.353,0.402,40.97,104.49,-5198.72,6271.44,3053.52,-1543.74,-3784.62,1964.46
1179,1.0,0.0,0.0,0.543,0.0,40.38,104.54,-4982.72,5743.44,2401.52,-1863.74,-2803.62,527.46
1200,1.0,0.0,0.0,0.438,0.0,40.01,104.71,-4522.72,5363.44,2261.52,-1304.74,-1498.62,-256.54
1220,1.0,0.0,0.0,0.383,0.0,39.95,104.95,-4958.72,5095.44,2457.52,-354.74,-227.62,-771.54
1240,1.0,0.0,0.0,0.413,0.0,40.12,105.42,-5434.72,4587.44,1977.52,221.26,404.38,-1130.54
1259,1.0,0.0,0.0,0.363,0.0,40.41,105.94,-5346.72,4087.44,2077.52,814.26,730.38,-1170.54
1278,1.0,0.0,0.0,0.443,0.0,40.64,106.59,-4906.72,3899.44,1829.52,1381.26,598.38,-986.54
1299,1.0,0.0,0.0,0.238,0.0,40.88,107.4,-4194.72,3691.44,1369.52,1621.26,1186.38,-820.54
1320,1.0,0.0,0.0,0.368,0.0,41.21,108.11,-4286.72,3723.44,1237.52,996.26,1824.38,-844.54
1339,1.0,0.0,0.0,0.383,0.0,41.57,108.66,-4418.72,3263.44,1437.52,381.26,1489.38,-873.54
1360,1.0,0.01,0.0,0.288,0.0,41.76,109.11,-4518.72,4015.44,1409.52,277.26,1045.38,-604.54
1380,1.0,0.0,0.0,0.268,0.0,41.83,109.58,-4494.72,3915.44,1221.52,215.26,184.38,-123.54
1399,1.0,0.0,0.0,0.298,0.0,41.89,110.18,-4050.72,3507.44,893.52,359.26,152.38,-24.54
1418,1.0,0.0,0.0,0.353,0.0,41.95,110.57,-4278.72,4187.44,1237.52,261.26,590.38,-162.54
1439,1.0,0.0,0.434,0.358,0.0,42.05,110.87,-4674.72,3999.44,1353.52,12.26,236.38,-155.54
1459,1.0,0.0,0.0,0.223,0.274,42.07,111.18,-4594.72,4171.44,1273.52,106.26,-116.62,-54.54
1478,1.0,0.0,0.0,0.203,0.0,42.02,111.38,-4558.72,4211.44,1481.52,24.26,-608.62,40.46
1498,1.0,0.0,0.0,0.193,0.274,42.0,111.63,-4226.72,3815.44,1333.52,-72.74,-485.62,-87.54
1520,1.0,0.0,0.0,0.353,0.0,42.05,111.78,-4398.72,4051.44,1433.52,-196.74,-60.62,-244.54
1540,1.0,0.0,0.0,0.293,0.0,42.16,111.91,-4714.72,3791.44,1493.52,-291.74,-186.62,-229.54
1559,1.0,0.0,0.516,0.178,0.0,42.25,112.0,-4690.72,4019.44,1581.52,-163.74,-137.62,-11.54
1580,1.0,0.0,0.0,0.263,0.0,42.28,112.14,-4514.72,3951.44,1573.52,230.26,-436.62,195.46
1599,1.0,0.0,0.0,0.178,0.0,42.35,112.18,-4358.72,4115.44,1881.52,325.26,23.38,163.46
1619,1.0,0.0,0.0,0.183,0.0,42.47,112.22,-4514.72,4071.44,1753.52,141.26,135.38,50.46
1639,1.0,0.0,0.0,0.188,0.0,42.59,112.23,-4490.72,4067.44,1837.52,222.26,176.38,40.46
1659,1.0,0.0,0.0,0.238,0.0,42.74,112.17,-4590.72,4043.44,1917.52,-33.74,290.38,42.46
1679,1.0,0.0,0.0,0.248,0.0,42.87,112.12,-4354.72,3943.44,1801.52,-244.74,236.38,113.46
1699,1.0,0.0,0.0,0.283,0.0,43.01,112.07,-4370.72,4027.44,1701.52,-336.74,399.38,74.46
1719,1.0,0.0,0.0,0.263,0.274,43.16,112.06,-4426.72,3903.44,1493.52,-493.74,369.38,108.46
1739,1.0,0.0,0.0,0.288,0.0,43.3,111.98,-4642.72,4139.44,1749.52,-338.74,303.38,191.46
1759,1.0,0.0,0.0,0.348,0.0,43.36,111.92,-4486.72,4247.44,1661.52,-249.74,19.38,241.46
1780,1.0,0.174,0.0,0.283,0.0,43.39,111.91,-4474.72,4351.44,1421.52,-336.74,-115.62,201.46
1800,1.0,0.0,0.0,0.318,0.0,43.47,111.86,-4322.72,4119.44,1621.52,-249.74,159.38,104.46
1818,1.0,0.0,0.0,0.283,0.0,43.55,111.8,-4358.72,4295.44,1701.52,-48.74,267.38,-23.54
1840,1.0,0.0,0.0,0.248,0.0,43.65,111.7,-4534.72,4431.44,1717.52,-235.74,318.38,-142.54
1860,1.0,0.0,0.0,0.193,0.0,43.77,111.58,-4598.72,4107.44,1813.52,-264.74,131.38,-150.54
1879,1.0,0.0,0.68,0.228,0.0,43.8,111.55,-4398.72,4183.44,1633.52,99.26,-213.62,7.46
1898,1.0,0.0,0.0,0.198,0.0,43.82,111.63,-4138.72,4239.44,1341.52,283.26,-10.62,35.46
1920,1.0,0.0,0.0,0.188,0.0,43.95,111.63,-4514.72,4159.44,1485.52,129.26,322.38,-190.54
1940,1.0,0.0,0.0,0.168,0.0,44.04,111.55,-4646.72,4419.44,1653.52,-20.74,187.38,-304.54
1960,1.0,0.0,0.0,0.168,0.0,44.12,111.44,-4634.72,4083.44,1737.52,-112.74,-254.62,-237.54
1979,1.0,0.0,0.0,0.113,0.0,44.21,111.41,-4290.72,3911.44,1641.52,169.26,-56.62,-194.54
2000,1.0,0.0,0.0,0.113,0.0,44.36,111.44,-4430.72,3899.44,1477.52,337.26,292.38,-100.54
2018,1.0,0.0,0.0,0.113,0.0,44.55,111.48,-4598.72,3719.44,1525.52,465.26,253.38,-19.54
2039,1.0,0.0,0.0,0.113,0.0,44.69,111.56,-4646.72,3815.44,1421.52,614.26,29.38,121.46
2059,1.0,0.0,0.0,0.098,0.0,44.78,111.59,-4534.72,3947.44,1493.52,597.26,-99.62,239.46
2079,1.0,0.0,0.0,0.123,0.0,44.85,111.61,-4286.72,4071.44,1265.52,143.26,129.38,163.46
2099,1.0,0.0,0.0,0.118,0.0,45.04,111.45,-4594.72,3883.44,1633.52,-358.74,387.38,-78.54
2119,1.0,0.0,0.0,0.113,0.0,45.16,111.31,-4658.72,3919.44,1625.52,-285.74,9.38,25.46
2140,1.0,0.0,0.0,0.133,0.0,45.24,111.25,-4506.72,3971.44,1525.52,112.26,-134.62,221.46
2159,1.0,0.0,0.0,0.138,0.0,45.31,111.13,-4478.72,4155.44,1705.52,180.26,10.38,252.46
2178,1.0,0.0,0.0,0.138,0.0,45.36,111.1,-4118.72,4051.44,1461.52,257.26,13.38,288.46
2198,1.0,0.0,0.0,0.183,0.0,45.47,111.03,-4346.72,4303.44,1493.52,219.26,517.38,178.46
2219,1.0,0.0,0.0,0.128,0.0,45.59,110.84,-4594.72,4303.44,1673.52,-220.74,401.38,34.46
2239,1.0,0.0,0.0,0.138,0.0,45.7,110.69,-4758.72,4123.44,1581.52,-256.74,8.38,27.46
2259,1.0,0.0,0.0,0.193,0.0,45.73,110.59,-4390.72,4051.44,1433.52,-156.74,-241.62,84.46
2279,0.0,0.0,0.0,0.208,0.0,45.74,110.57,-4314.72,3959.44,1237.52,-88.74,-352.62,148.46
2299,0.0,0.0,0.0,0.208,0.0,45.82,110.5,-4318.72,4083.44,1397.52,7.26,127.38,-17.54
2319,0.0,0.0,0.0,0.213,0.0,45.88,110.38,-4370.72,4267.44,1473.52,-89.74,175.38,-84.54
2339,0.0,0.0,0.0,0.058,0.0,45.96,110.21,-4598.72,4143.44,1661.52,-192.74,-50.62,-21.54
2359,0.0,0.0,0.0,0.038,0.0,46.02,110.11,-4502.72,4103.44,1489.52,-19.74,-124.62,86.46
2378,0.0,0.003,0.0,0.033,0.0,46.06,109.95,-4354.72,4267.44,1629.52,-65.74,-64.62,24.46
2400,0.0,0.0,0.0,0.038,0.0,46.11,109.82,-4498.72,4051.44,1545.52,-162.74,-263.62,16.46
2419,0.0,0.0,0.0,0.033,0.0,46.14,109.71,-4578.72,4267.44,1533.52,56.26,-230.62,30.46
2439,0.0,0.0,0.0,0.043,0.0,46.14,109.57,-4310.72,4163.44,1629.52,-3.74,-397.62,138.46
2458,0.0,0.0,0.0,0.043,0.0,46.14,109.51,-4142.72,4087.44,1329.52,22.26,-253.62,137.46
2479,1.0,0.0,0.0,0.048,0.0,46.23,109.35,-4382.72,4043.44,1621.52,-214.74,15.38,18.46
2498,1.0,0.0,0.0,0.033,0.0,46.34,109.25,-4494.72,3903.44,1445.52,-208.74,-27.62,21.46
2518,1.0,0.0,0.434,0.028,0.0,46.46,109.09,-4630.72,4131.44,1649.52,-99.74,115.38,8.46
2540,1.0,0.0,0.0,0.063,0.0,46.52,108.91,-4602.72,4087.44,1717.52,-109.74,-281.62,61.46
2559,1.0,0.0,0.0,0.043,0.274,46.57,108.79,-4410.72,4003.44,1641.52,48.26,-268.62,104.46
2579,0.0,0.0,0.0,0.033,0.0,46.67,108.59,-4382.72,4119.44,1885.52,-10.74,135.38,101.46
2599,1.0,0.01,0.0,0.043,0.0,46.78,108.4,-4394.72,4171.44,1781.52,-118.74,291.38,131.46
2618,1.0,0.0,0.0,0.033,0.274,46.89,108.25,-4538.72,4091.44,1677.52,-95.74,157.38,223.46
2638,1.0,0.0,0.0,0.018,0.274,46.95,108.09,-4498.72,4131.44,1777.52,85.26,-127.62,403.46
2659,1.0,0.0,0.0,0.038,0.0,46.94,107.99,-4290.72,4239.44,1709.52,334.26,-380.62,474.46
2680,1.0,0.0,0.0,0.088,0.0,46.95,107.93,-4302.72,4279.44,1473.52,227.26,-173.62,345.46
2699,1.0,0.034,0.0,0.043,0.0,46.99,107.83,-4262.72,4375.44,1545.52,107.26,168.38,135.46
2719,0.0,0.0,0.0,0.043,0.0,47.07,107.67,-4242.72,4307.44,1617.52,-167.74,326.38,-58.54
2738,1.0,0.0,0.0,0.093,0.0,47.2,107.51,-4586.72,4231.44,1713.52,-21.74,335.38,-124.54
2759,1.0,0.0,0.0,0.033,0.0,47.29,107.4,-4438.72,4171.44,1741.52,249.26,215.38,-9.54
2779,1.0,0.0,0.0,0.038,0.0,47.39,107.28,-4394.72,4263.44,1661.52,130.26,342.38,40.46
2799,1.0,0.026,0.0,0.033,0.0,47.51,107.16,-4614.72,4087.44,1709.52,117.26,234.38,31.46
2818,1.0,0.0,0.0,0.023,0.0,47.56,107.12,-4326.72,4251.44,1525.52,443.26,142.38,76.46
2839,1.0,0.368,0.0,0.078,0.0,47.61,107.04,-4494.72,4143.44,1645.52,283.26,-105.62,82.46
2858,1.0,0.003,0.0,0.028,0.0,47.6,107.0,-4262.72,4211.44,1365.52,128.26,-189.62,-7.54
2879,1.0,0.018,0.0,0.043,0.0,47.68,106.93,-4346.72,3999.44,1365.52,-164.74,128.38,-113.54
2900,1.0,0.0,0.0,0.053,0.0,47.79,106.83,-4550.72,4079.44,1433.52,-198.74,219.38,-148.54
2919,1.0,0.018,0.0,0.033,0.0,47.83,106.78,-4478.72,3987.44,1405.52,32.26,-211.62,60.46
2938,1.0,0.0,0.598,0.033,0.0,47.83,106.69,-4430.72,4159.44,1553.52,71.26,-361.62,157.46
2958,1.0,0.0,0.0,0.033,0.274,47.8,106.6,-4238.72,4159.44,1401.52,-163.74,-366.62,73.46
2978,1.0,0.0,0.598,0.033,0.0,47.83,106.46,-4322.72,4079.44,1509.52,-392.74,-151.62,1.46
