timestamp,flex_1,flex_2,flex_3,flex_4,flex_5,kalman_pitch,kalman_roll,acc_x,acc_y,acc_z,gyro_x,gyro_y,gyro_z
0,0.665,0.248,0.011,0.327,1.0,54.91,17.35,-1700.88,527.28,18909.36,356.52,1119.18,1528.04
19,0.857,0.093,0.315,0.244,1.0,29.33,2.71,-1560.88,-108.72,19089.36,1355.52,2521.18,1801.04
40,0.778,0.1,0.0,0.281,0.0,14.31,-4.77,-1216.88,815.28,19093.36,3881.52,4789.18,829.04
59,0.937,0.0,0.0,0.299,0.0,5.73,-9.79,-2420.88,-296.72,20209.36,4792.52,5554.18,-358.96
80,0.84,0.0,1.0,0.281,1.0,-0.22,-12.3,-2308.88,759.28,21941.36,4283.52,4727.18,-993.96
100,0.875,0.375,0.822,0.123,0.902,-4.24,-13.92,-4204.88,1187.28,22549.36,3572.52,1829.18,348.04
120,0.708,0.1,0.796,0.0,1.0,-8.17,-17.5,-3172.88,-2472.72,21749.36,-2249.48,-2678.82,2530.04
140,0.9,0.227,0.0,0.188,0.837,-12.0,-21.29,-2204.88,-3704.72,21441.36,-5234.48,-5442.82,4394.04
160,0.875,0.015,0.0,0.299,0.674,-14.91,-24.07,-3184.88,-4632.72,22385.36,-1847.48,-5889.82,6605.04
180,0.791,0.0,1.0,0.0,1.0,-16.89,-25.29,-4752.88,-3704.72,24765.36,2201.52,-5477.82,9040.04
200,0.636,0.022,0.391,0.55,0.967,-19.13,-26.12,-3660.88,-2972.72,24345.36,3090.52,-6498.82,9140.04
220,0.331,0.0,1.0,0.039,0.0,-21.47,-27.46,-1880.88,-3356.72,24173.36,-597.48,-6193.82,8549.04
240,0.405,0.036,0.67,0.141,0.0,-23.63,-29.8,-796.88,-4228.72,23925.36,-7179.48,-5176.82,9819.04
260,0.622,0.326,0.0,0.0,0.674,-25.24,-32.51,-812.88,-6460.72,24985.36,-9684.48,-4055.82,13379.04
280,0.618,0.163,0.594,0.216,0.0,-26.29,-34.5,-1232.88,-6220.72,24669.36,-6084.48,-1204.82,16649.04
300,0.519,0.1,0.037,0.151,0.0,-26.85,-35.9,-980.88,-6244.72,25105.36,-3376.48,1793.18,19958.04
320,0.558,0.029,0.0,0.485,1.0,-26.72,-37.07,-1020.88,-7060.72,25653.36,-2043.48,5952.18,23469.04
340,0.453,0.0,0.0,0.355,0.153,-26.09,-38.93,-640.88,-8376.72,23493.36,-4671.48,10110.18,25088.04
360,0.014,0.213,1.0,0.104,1.0,-24.95,-41.6,-1188.88,-10920.72,24245.36,-9869.48,12469.18,26056.04
380,0.216,0.326,0.0,0.067,0.0,-23.49,-44.09,-1800.88,-13108.72,24633.36,-8791.48,14010.18,27873.04
400,0.15,0.065,0.0,0.216,0.153,-21.3,-45.11,-2640.88,-12724.72,25293.36,-288.48,19033.18,30595.04
420,0.146,0.0,1.0,0.281,1.0,-18.57,-45.28,-2652.88,-11124.72,23941.36,5220.52,24367.18,32585.04
440,0.0,0.0,0.594,0.513,0.0,-15.25,-45.52,-4776.88,-9940.72,23237.36,4399.52,28151.18,32890.04
460,0.024,0.0,0.999,0.0,0.577,-11.29,-46.04,-7780.88,-9776.72,25117.36,833.52,30939.18,32890.04
480,0.0,0.0,0.366,0.0,0.316,-7.23,-46.99,-11308.88,-10808.72,24729.36,-1427.48,29853.18,32890.04
500,0.0,0.0,1.0,0.337,1.0,-3.85,-48.03,-11652.88,-10532.72,21917.36,-449.48,26490.18,32890.04
520,0.022,0.0,1.0,0.513,0.87,-0.4,-48.49,-12856.88,-8420.72,19597.36,3827.52,26949.18,32890.04
540,0.0,0.312,1.0,0.0,0.674,3.29,-48.67,-14564.88,-7404.72,18865.36,5638.52,27881.18,32890.04
560,0.026,0.34,0.214,0.216,0.088,6.96,-48.25,-15364.88,-4772.72,19649.36,6866.52,27830.18,32890.04
580,0.131,0.199,1.0,0.867,0.0,10.4,-47.97,-16356.88,-2872.72,17401.36,6671.52,25370.18,32890.04
600,0.23,0.643,1.0,0.476,0.902,13.97,-48.65,-17592.88,-1716.72,13825.36,4015.52,23798.18,31889.04
620,0.488,0.347,1.0,0.569,1.0,17.24,-50.09,-17268.88,-1520.72,12201.36,1382.52,22748.18,30435.04
640,0.475,1.0,0.872,1.0,0.739,20.42,-51.73,-17488.88,-1048.72,11341.36,1018.52,22225.18,28889.04
660,0.51,0.474,1.0,0.467,0.0,23.87,-51.68,-19268.88,2295.28,13033.36,3732.52,19708.18,28901.04
680,0.576,0.559,0.72,1.0,1.0,27.23,-52.2,-18052.88,4427.28,10109.36,4116.52,15417.18,27912.04
700,0.348,0.784,1.0,0.867,1.0,30.96,-54.89,-18204.88,5587.28,7985.36,2252.52,13889.18,25931.04
720,0.403,0.481,0.568,0.774,1.0,33.4,-59.67,-17408.88,4379.28,5637.36,-503.48,13266.18,23529.04
739,0.669,0.403,0.011,1.0,0.055,35.92,-64.83,-15904.88,5903.28,5989.36,410.52,13974.18,20948.04
760,0.735,0.502,0.442,1.0,1.0,38.73,-57.58,-17492.88,10823.28,9561.36,7141.52,15164.18,19769.04
780,0.63,0.763,1.0,1.0,1.0,41.43,-49.29,-18420.88,11035.28,8189.36,7090.52,13593.18,16741.04
800,0.679,0.7,0.366,0.634,0.0,43.36,-40.69,-18184.88,11099.28,6229.36,-215.48,10908.18,12909.04
820,0.28,0.77,1.0,0.801,0.479,45.18,-32.16,-19016.88,10291.28,5369.36,-5398.48,9371.18,9825.04
840,0.642,0.46,0.999,0.811,0.0,46.88,-25.45,-20044.88,11867.28,7097.36,-3587.48,8934.18,8767.04
860,0.578,0.347,0.67,0.997,0.0,47.51,-19.58,-20124.88,14831.28,10285.36,3880.52,7473.18,10582.04
880,0.805,0.657,1.0,1.0,1.0,47.6,-11.82,-21156.88,14519.28,7177.36,9003.52,1931.18,12114.04
900,0.71,0.862,0.0,1.0,1.0,46.96,-4.16,-20228.88,14403.28,5373.36,4878.52,-1524.82,11155.04
920,0.774,0.679,1.0,1.0,1.0,46.0,2.45,-20048.88,15655.28,5357.36,842.52,-2045.82,8395.04
940,0.737,0.735,0.746,1.0,1.0,45.13,8.15,-19744.88,15339.28,5885.36,-2767.48,-2014.82,5370.04
960,0.805,0.841,1.0,1.0,0.0,44.51,13.55,-18900.88,13663.28,5961.36,-4775.48,-1702.82,3324.04
980,0.797,0.777,1.0,1.0,1.0,44.1,18.91,-17720.88,12103.28,6393.36,-4482.48,-1733.82,2863.04
1000,0.719,0.382,1.0,1.0,0.0,43.51,23.95,-15276.88,10679.28,7345.36,-2835.48,-1620.82,1960.04
1020,0.618,0.537,0.391,0.402,0.935,40.0,28.73,-11852.88,8895.28,7989.36,-555.48,-510.82,-255.96
1039,0.737,0.29,1.0,0.513,1.0,35.55,32.37,-10796.88,9595.28,8449.36,-830.48,682.18,-4755.96
1060,0.679,0.552,0.847,1.0,0.511,33.65,36.23,-12492.88,9827.28,7781.36,-5461.48,346.18,-10335.96
1080,0.766,0.446,0.923,1.0,1.0,35.02,42.33,-15760.88,8051.28,7361.36,-10567.48,-2412.82,-13497.96
1101,1.0,0.791,0.746,0.811,1.0,35.91,33.45,-19732.88,6407.28,7109.36,-6256.48,-5738.82,-13287.96
1121,1.0,0.135,0.999,1.0,1.0,37.01,38.6,-27212.88,9443.28,7729.36,2366.52,-6371.82,-14672.96
1140,0.667,0.417,0.113,0.541,1.0,37.5,43.86,-32312.88,15195.28,6461.36,4949.52,-5277.82,-18365.96
1161,0.871,0.756,0.897,1.0,0.674,38.56,47.73,-37388.88,13699.28,6765.36,-3245.48,-4070.82,-20429.96
1180,0.799,0.693,0.442,0.801,0.0,39.89,48.12,-44860.88,11751.28,10717.36,-9446.48,-4045.82,-19571.96
1201,0.706,0.481,1.0,1.0,1.0,40.94,47.67,-44860.88,10359.28,14193.36,-2548.48,-4625.82,-14536.96
1220,0.865,0.424,0.0,0.811,0.0,42.0,49.65,-44860.88,12515.28,13757.36,7980.52,-3907.82,-10394.96
1240,0.671,0.417,0.113,1.0,0.0,43.23,52.65,-42972.88,15603.28,12369.36,7980.52,-1338.82,-8192.96
1260,0.64,0.552,0.872,1.0,1.0,45.22,53.66,-35916.88,11227.28,10637.36,-2136.48,1967.18,-7047.96
1280,0.576,0.537,1.0,0.987,0.0,47.72,53.17,-36188.88,8607.28,9069.36,-8099.48,3284.18,-5072.96
1300,0.768,0.883,0.239,0.95,0.0,49.54,48.44,-32528.88,6127.28,10481.36,-8862.48,1073.18,-1306.96
1320,0.778,0.756,0.0,0.69,0.0,51.07,45.5,-29452.88,6963.28,10037.36,-2187.48,-865.82,1545.04
1340,0.834,0.7,0.619,1.0,0.446,52.51,45.9,-27584.88,8627.28,9985.36,2615.52,-944.82,2253.04
1360,0.995,0.559,0.416,1.0,1.0,53.8,47.29,-26672.88,9431.28,9617.36,1392.52,-1118.82,2192.04
1380,1.0,0.855,0.822,0.857,0.674,55.11,47.66,-26380.88,8811.28,9465.36,-1683.48,-1451.82,1528.04
1400,0.578,0.679,0.594,0.82,0.0,56.4,46.35,-26284.88,7907.28,9645.36,-1186.48,-1564.82,1280.04
1420,0.717,0.714,1.0,1.0,1.0,57.61,46.83,-26560.88,8819.28,9917.36,1893.52,-1025.82,1003.04
1440,0.572,0.403,0.72,0.643,1.0,58.67,48.7,-26780.88,10391.28,10029.36,3456.52,-256.82,214.04
1460,0.842,0.241,0.0,0.755,0.088,60.0,50.14,-27496.88,9707.28,9497.36,764.52,593.18,-1294.96
1480,0.84,0.615,1.0,0.523,0.0,61.59,47.85,-27536.88,7567.28,9265.36,-1475.48,992.18,-1908.96
1500,0.898,0.234,1.0,0.616,1.0,63.0,43.8,-28084.88,6443.28,9313.36,119.52,966.18,-1387.96
1520,0.867,0.177,1.0,0.56,0.0,64.39,41.31,-28236.88,7123.28,9305.36,2740.52,596.18,-528.96
1540,0.997,0.657,0.568,0.867,0.0,65.68,42.17,-28112.88,8503.28,9325.36,3590.52,378.18,-167.96
1560,0.595,0.552,1.0,1.0,1.0,67.02,41.75,-28104.88,8115.28,9277.36,282.52,875.18,-851.96
1580,0.545,0.869,1.0,1.0,1.0,68.29,37.39,-27720.88,6727.28,9021.36,-2700.48,932.18,-851.96
1600,0.486,0.622,1.0,0.932,1.0,69.45,34.19,-28512.88,6807.28,9657.36,-2038.48,989.18,-425.96
1620,0.519,0.573,0.0,0.699,1.0,70.53,33.72,-28412.88,8127.28,9661.36,-204.48,443.18,91.04
1640,0.706,0.432,0.0,0.792,1.0,71.52,34.97,-27844.88,8867.28,9141.36,-589.48,240.18,-207.96
1660,0.471,0.544,0.796,0.709,1.0,72.49,36.65,-27212.88,9291.28,8853.36,-3132.48,647.18,-1222.96
1680,0.502,0.0,1.0,1.0,1.0,73.76,34.49,-27612.88,7723.28,8769.36,-5871.48,1514.18,-2289.96
1700,0.451,0.671,1.0,1.0,0.837,74.58,30.48,-28536.88,6231.28,10021.36,-5725.48,920.18,-2297.96
1720,0.463,0.615,1.0,0.337,0.577,75.02,27.55,-28796.88,6095.28,10573.36,-971.48,-896.82,-856.96
1740,0.43,1.0,0.973,0.811,0.0,75.44,25.84,-28324.88,6915.28,10001.36,3226.52,-1906.82,358.04
1760,0.486,0.389,0.568,0.904,0.349,75.91,26.25,-27968.88,8175.28,9681.36,3557.52,-1868.82,605.04
1780,0.537,0.89,0.897,1.0,1.0,76.49,27.26,-28352.88,8927.28,9785.36,914.52,-613.82,-56.96
1800,0.44,0.467,0.568,1.0,0.0,77.09,25.87,-28496.88,7663.28,10237.36,-2103.48,-174.82,-493.96
1820,0.424,0.488,0.518,0.448,1.0,77.59,23.56,-28780.88,6803.28,10405.36,-1561.48,-367.82,-51.96
1840,0.48,0.523,0.0,0.727,1.0,78.16,22.34,-28300.88,7435.28,9937.36,862.52,-445.82,520.04
1860,0.463,0.481,0.543,0.774,1.0,78.76,22.57,-28152.88,8135.28,9517.36,1661.52,-459.82,644.04
1880,0.593,0.396,0.948,0.309,0.674,79.43,23.12,-27700.88,8227.28,9149.36,542.52,-172.82,273.04
1900,0.43,0.537,0.189,0.718,1.0,80.01,21.88,-28076.88,7575.28,9845.36,-701.48,119.18,21.04
1920,0.44,0.516,0.594,0.932,1.0,80.56,20.96,-28164.88,7695.28,9901.36,-154.48,93.18,154.04
1940,0.445,0.552,0.0,1.0,0.0,81.08,20.28,-27996.88,7771.28,9661.36,348.52,-180.82,247.04
1960,0.42,0.926,1.0,1.0,0.055,81.59,20.0,-27780.88,7923.28,9429.36,556.52,-353.82,196.04
1980,0.362,0.841,0.416,0.922,0.577,82.12,19.95,-27588.88,8039.28,9357.36,155.52,-121.82,-68.96
2000,0.461,0.622,0.644,0.671,0.153,82.54,19.07,-27676.88,7691.28,9857.36,-191.48,-144.82,-240.96
2020,0.333,0.904,1.0,0.504,0.544,82.96,17.9,-27636.88,7491.28,9593.36,423.52,-224.82,-190.96
2040,0.494,0.643,0.0,0.755,1.0,83.35,16.88,-27816.88,7471.28,9737.36,1164.52,-258.82,-261.96
2060,0.412,0.417,0.594,0.811,1.0,83.69,16.39,-27940.88,7747.28,9905.36,1285.52,-196.82,-599.96
2080,0.35,0.791,0.442,0.857,0.316,84.04,15.85,-27904.88,7819.28,10009.36,138.52,49.18,-924.96
2100,0.395,0.474,1.0,0.811,0.153,84.36,14.95,-28192.88,7635.28,10145.36,-655.48,103.18,-830.96
2120,0.432,0.446,0.948,1.0,0.707,84.63,13.78,-28188.88,7391.28,10109.36,-274.48,-129.82,-598.96
2140,0.389,0.636,0.113,0.653,0.479,84.89,13.02,-28132.88,7575.28,10009.36,587.52,-247.82,-408.96
2160,0.459,0.389,1.0,1.0,0.511,85.14,12.77,-27980.88,7883.28,10101.36,756.52,-64.82,-525.96
2180,0.455,0.594,1.0,1.0,1.0,85.46,12.17,-28148.88,7767.28,10053.36,-464.48,442.18,-918.96
2200,0.527,0.509,1.0,0.634,1.0,85.77,10.67,-28336.88,7167.28,10237.36,-1391.48,684.18,-806.96
2220,0.477,0.537,0.72,0.662,1.0,86.05,8.75,-28336.88,6847.28,9973.36,-967.48,535.18,-448.96
2240,0.482,0.636,0.518,0.755,1.0,86.28,7.8,-28212.88,7351.28,9961.36,537.52,114.18,-6.96
2260,0.471,0.382,1.0,1.0,0.446,86.56,8.38,-27884.88,8175.28,9557.36,909.52,76.18,-45.96
2280,0.482,0.876,1.0,0.476,1.0,86.89,8.82,-27544.88,8163.28,9329.36,-776.48,358.18,-587.96
2300,0.523,0.453,0.442,0.876,1.0,87.27,8.13,-27792.88,7795.28,9437.36,-2680.48,778.18,-1183.96
2320,0.519,0.537,1.0,0.374,0.0,87.55,6.42,-28048.88,7219.28,9829.36,-3248.48,793.18,-1427.96
2340,0.278,1.0,0.999,1.0,1.0,87.79,5.22,-28004.88,7431.28,9773.36,-2267.48,556.18,-1300.96
2360,0.409,0.544,1.0,1.0,1.0,87.97,3.85,-27928.88,7175.28,9961.36,-1623.48,532.18,-1323.96
2380,0.397,0.53,0.011,1.0,0.674,88.11,2.08,-27924.88,6831.28,9881.36,-1121.48,366.18,-1156.96
2400,0.477,0.777,0.999,0.299,0.0,88.26,0.3,-27944.88,6747.28,9773.36,-381.48,484.18,-835.96
2420,0.477,0.7,0.0,1.0,0.544,88.41,-1.59,-28084.88,6599.28,9777.36,-369.48,642.18,-716.96
2440,0.339,0.424,1.0,0.783,0.0,88.56,-3.47,-28244.88,6635.28,9625.36,-148.48,501.18,-557.96
2460,0.315,0.248,1.0,0.634,1.0,88.7,-5.2,-28140.88,6783.28,9449.36,322.52,299.18,-467.96
2480,0.432,0.777,1.0,1.0,1.0,88.85,-6.89,-27980.88,6891.28,9285.36,245.52,162.18,-483.96
2500,0.465,0.192,1.0,0.662,0.0,88.96,-8.92,-28068.88,6635.28,9305.36,-56.48,201.18,-440.96
2520,0.422,0.679,0.619,0.616,0.316,89.04,-10.68,-28276.88,6595.28,9529.36,-63.48,273.18,-357.96
2540,0.42,1.0,0.341,1.0,0.153,89.07,-12.29,-28428.88,6543.28,9669.36,109.52,180.18,-129.96
2560,0.502,0.686,1.0,1.0,0.674,89.12,-13.57,-28184.88,6827.28,9505.36,439.52,-22.82,93.04
2580,0.473,0.566,0.416,1.0,0.023,89.2,-14.21,-28180.88,7239.28,9421.36,393.52,-53.82,142.04
2600,0.298,0.615,0.341,0.867,1.0,89.25,-15.15,-28024.88,7111.28,9453.36,-398.48,-149.82,-66.96
2620,0.463,0.474,0.0,0.848,1.0,89.25,-16.58,-27964.88,6747.28,9505.36,-556.48,-128.82,-239.96
2640,0.56,0.784,0.189,0.634,0.739,89.26,-17.7,-28084.88,6819.28,9653.36,-316.48,17.18,-256.96
2660,0.554,0.424,0.644,1.0,0.0,89.21,-18.75,-28176.88,6699.28,9853.36,-140.48,-14.82,-120.96
2680,0.473,0.714,0.0,0.876,1.0,89.19,-19.41,-28212.88,6971.28,9737.36,373.52,-157.82,94.04
2700,0.562,0.53,1.0,0.876,0.674,89.21,-20.11,-28032.88,7067.28,9489.36,184.52,-103.82,94.04
2720,0.409,0.481,0.999,0.82,0.316,89.25,-21.29,-28052.88,6863.28,9377.36,-374.48,116.18,-32.96
2740,0.432,0.552,1.0,1.0,0.87,89.27,-22.2,-28088.88,6843.28,9653.36,-434.48,241.18,-121.96
2760,0.387,0.516,0.822,0.783,0.902,89.3,-23.38,-28156.88,6707.28,9493.36,-228.48,278.18,-97.96
2780,0.595,0.777,0.872,1.0,0.186,89.31,-24.24,-28128.88,6823.28,9537.36,268.52,171.18,18.04
2800,0.409,0.813,0.948,0.513,1.0,89.34,-24.68,-28096.88,7119.28,9465.36,178.52,82.18,40.04
2820,0.475,0.791,1.0,1.0,1.0,89.33,-25.87,-27824.88,6799.28,9313.36,-553.48,-11.82,3.04
2840,0.368,0.883,1.0,0.411,1.0,89.28,-26.96,-27916.88,6647.28,9501.36,-192.48,-37.82,63.04
2860,0.496,0.333,1.0,1.0,1.0,89.23,-27.49,-27920.88,6891.28,9589.36,553.52,-128.82,118.04
2880,0.537,0.573,0.872,1.0,0.935,89.17,-27.51,-27892.88,7155.28,9697.36,644.52,-180.82,32.04
2900,0.607,0.671,0.897,1.0,1.0,89.14,-27.47,-28040.88,7267.28,9625.36,-29.48,-72.82,-185.96
2920,0.581,0.107,0.847,0.811,1.0,89.07,-28.57,-28032.88,6603.28,9565.36,-816.48,-25.82,-303.96
2940,0.409,0.601,0.189,0.857,1.0,88.96,-29.69,-28104.88,6387.28,9685.36,-428.48,-29.82,-173.96
2960,0.613,0.643,1.0,0.309,0.577,88.9,-30.08,-28108.88,6815.28,9753.36,451.52,58.18,24.04
2980,0.354,0.502,1.0,0.216,1.0,88.86,-30.0,-28124.88,7131.28,9765.36,489.52,82.18,58.04
