timestamp,flex_1,flex_2,flex_3,flex_4,flex_5,kalman_pitch,kalman_roll,acc_x,acc_y,acc_z,gyro_x,gyro_y,gyro_z
0,1.0,0.169,0.827,0.0,0.692,2.05,42.3,3428.16,3086.72,14348.4,171.18,1121.8,-299.08
20,1.0,0.093,0.827,0.0,0.0,-16.69,23.4,3328.16,3122.72,14740.4,808.18,1929.8,-767.08
40,1.0,0.115,1.0,0.0,0.0,-25.24,14.42,2724.16,3182.72,15124.4,991.18,1462.8,-927.08
60,1.0,0.115,0.827,0.0,0.0,-30.79,9.24,2960.16,3382.72,14736.4,1375.18,707.8,-761.08
80,1.0,0.147,0.827,0.0,0.692,-34.67,5.69,2872.16,3278.72,14508.4,1738.18,301.8,-393.08
100,1.0,0.147,0.827,0.0,0.692,-37.6,3.32,3296.16,3206.72,14608.4,3659.18,518.8,-199.08
120,1.0,0.136,1.0,0.0,0.692,-39.87,1.75,3196.16,3614.72,14536.4,3023.18,599.8,-233.08
140,1.0,0.049,1.0,0.0,0.0,-41.51,0.67,2444.16,4206.72,15072.4,1041.18,-616.2,-715.08
160,1.0,0.082,1.0,0.0,0.0,-43.12,-0.39,2624.16,4778.72,15316.4,-2564.82,-2286.2,-507.08
180,1.0,0.147,0.827,0.0,0.0,-44.94,-2.89,3044.16,1858.72,14940.4,-2745.82,-4843.2,349.92
200,1.0,0.136,0.827,0.0,0.692,-46.95,-4.49,3640.16,2222.72,14824.4,208.18,-6319.2,482.92
220,1.0,0.147,0.827,0.0,0.0,-48.34,-5.04,3540.16,3806.72,16192.4,684.18,-5147.2,815.92
240,1.0,0.191,0.0,0.0,0.692,-48.9,-5.79,3720.16,2126.72,18620.4,2082.18,-3104.2,2510.92
260,1.0,1.0,0.827,0.0,0.692,-49.33,-5.25,4592.16,4542.72,18496.4,5447.18,-917.2,2481.92
280,1.0,0.714,0.827,0.0,0.0,-49.15,-4.97,4972.16,3982.72,18940.4,5042.18,3209.8,3084.92
300,1.0,0.682,0.442,0.0,0.0,-48.27,-4.73,5760.16,2858.72,20088.4,6878.18,7869.8,5002.92
320,1.0,0.474,0.0,0.0,0.894,-46.96,-4.07,4884.16,4594.72,20904.4,6776.18,9933.8,6545.92
340,1.0,0.638,0.442,0.01,0.692,-45.3,-3.9,4448.16,3210.72,20472.4,5985.18,12963.8,3928.92
360,1.0,0.191,0.827,0.276,0.0,-43.44,-3.34,4948.16,5158.72,21484.4,5636.18,14923.8,874.92
380,1.0,0.42,0.827,1.0,0.692,-41.35,-3.02,3672.16,5922.72,20920.4,2968.18,16626.8,-272.08
400,1.0,0.169,0.0,1.0,0.0,-39.14,-3.95,4184.16,6818.72,22316.4,-6824.82,17892.8,-1393.08
420,1.0,0.158,0.0,1.0,0.692,-36.04,-5.14,3908.16,4118.72,24624.4,-5375.82,23372.8,657.92
440,1.0,0.125,0.058,1.0,0.692,-32.47,-5.29,2860.16,2298.72,24292.4,3593.18,27277.8,1760.92
460,1.0,0.191,1.0,1.0,0.0,-28.69,-4.65,1756.16,2110.72,24624.4,9223.18,29092.8,1006.92
480,1.0,0.191,0.827,1.0,0.692,-24.78,-3.48,1376.16,3134.72,24512.4,12004.18,31388.8,-108.08
500,1.0,0.169,0.442,1.0,0.692,-20.93,-1.68,320.16,6026.72,24928.4,13497.18,31495.8,-1213.08
520,1.0,0.18,0.442,0.338,0.692,-17.04,-0.23,-1699.84,4098.72,24784.4,14080.18,31495.8,-342.08
540,1.0,0.147,1.0,0.431,0.0,-13.09,1.62,-3523.84,5674.72,25556.4,15631.18,31495.8,537.92
560,1.0,0.158,0.827,0.241,0.0,-9.48,3.51,-3723.84,5678.72,22648.4,16577.18,31495.8,367.92
580,1.0,0.158,0.0,0.211,0.0,-5.4,6.04,-7855.84,6582.72,21316.4,20536.18,31495.8,-149.08
600,1.0,0.169,0.442,0.195,0.692,-1.65,8.07,-7307.84,6786.72,21864.4,17906.18,31495.8,-883.08
620,1.0,0.158,0.827,0.067,0.0,2.25,9.95,-9391.84,7106.72,20048.4,17017.18,31495.8,-584.08
640,1.0,0.202,0.827,0.123,0.692,5.66,11.4,-9343.84,8282.72,18268.4,12595.18,29800.8,58.92
660,1.0,0.234,0.827,0.057,0.0,9.18,12.57,-10459.84,8218.72,17808.4,11096.18,30201.8,-814.08
680,1.0,0.18,0.827,0.0,0.692,12.66,13.68,-12723.84,6894.72,16976.4,13210.18,27368.8,-417.08
700,1.0,0.18,0.827,0.0,0.692,15.7,15.12,-13519.84,7034.72,15996.4,15488.18,23821.8,56.92
720,1.0,0.18,1.0,0.034,0.0,18.36,17.27,-13307.84,8582.72,14620.4,17288.18,22197.8,-171.08
740,1.0,0.158,0.058,0.028,0.0,20.95,19.78,-13795.84,10514.72,13960.4,16455.18,22073.8,-954.08
760,1.0,0.169,1.0,0.085,0.692,23.77,21.69,-16227.84,9806.72,12976.4,13525.18,19337.8,-849.08
780,1.0,0.169,0.827,0.072,0.0,26.11,23.74,-16903.84,10366.72,12532.4,13548.18,15880.8,70.92
800,1.0,0.18,0.827,0.104,0.0,28.07,26.23,-17019.84,10930.72,11244.4,14370.18,13104.8,957.92
820,1.0,0.169,0.827,0.039,0.692,29.85,29.12,-16931.84,11958.72,10428.4,14750.18,12765.8,620.92
840,1.0,0.169,0.0,0.039,0.0,31.79,31.76,-17567.84,11650.72,10276.4,14343.18,13187.8,-433.08
860,1.0,0.18,0.827,0.071,0.692,33.71,34.07,-19191.84,11694.72,10864.4,13921.18,12150.8,186.92
880,1.0,0.115,0.442,0.097,0.0,35.05,36.91,-18615.84,12562.72,9892.4,15250.18,9475.8,569.92
900,1.0,0.147,0.827,0.0,0.692,36.31,40.02,-18227.84,12946.72,8944.4,15613.18,9658.8,1263.92
920,1.0,0.169,1.0,0.018,0.692,37.57,42.93,-18747.84,13322.72,8472.4,13830.18,9494.8,750.92
940,1.0,0.18,0.827,0.045,0.692,38.62,45.48,-18815.84,13958.72,8700.4,12082.18,9238.8,786.92
960,1.0,0.169,1.0,0.0,0.692,39.6,47.94,-19395.84,13954.72,7856.4,10608.18,8033.8,-15.08
980,1.0,0.18,0.827,0.0,0.0,40.55,50.37,-19167.84,14182.72,6800.4,8568.18,8257.8,-600.08
1000,1.0,0.169,0.058,0.0,0.0,41.38,52.71,-19047.84,14698.72,6056.4,6682.18,8234.8,-1504.08
1020,1.0,0.245,0.058,0.0,0.692,42.31,54.9,-19015.84,13710.72,5408.4,5209.18,8025.8,-1479.08
1040,1.0,0.191,0.827,0.0,0.692,43.32,56.94,-19815.84,13762.72,5616.4,5390.18,8005.8,-1409.08
1060,1.0,0.158,1.0,0.0,0.692,44.18,58.84,-19943.84,13578.72,5812.4,5586.18,7013.8,-1510.08
1080,1.0,0.18,0.442,0.0,0.692,44.9,61.06,-19859.84,14138.72,4028.4,3732.18,6920.8,-2050.08
1100,1.0,0.202,0.827,0.0,0.692,45.72,63.01,-20295.84,13598.72,3708.4,1546.18,6774.8,-2378.08
1120,1.0,0.158,0.827,0.0,0.692,46.45,65.38,-20287.84,13026.72,3016.4,3043.18,5714.8,-1241.08
1140,1.0,0.169,0.827,0.0,0.0,47.0,67.92,-20391.84,13254.72,3196.4,5456.18,4905.8,-594.08
1160,1.0,0.18,0.827,0.0,0.0,47.33,70.57,-20631.84,13874.72,2328.4,4985.18,4227.8,-487.08
1180,1.0,0.147,0.827,0.0,0.692,47.6,73.08,-20663.84,13862.72,1540.4,2928.18,4097.8,-921.08
1200,1.0,0.136,0.827,0.0,0.692,47.72,75.23,-20227.84,14010.72,1600.4,1359.18,3782.8,-1276.08
1220,1.0,0.158,1.0,0.006,0.0,47.77,77.11,-20275.84,14098.72,1532.4,47.18,3400.8,-1582.08
1240,1.0,0.125,0.827,0.0,0.692,47.92,78.9,-20919.84,13306.72,1708.4,-170.82,2508.8,-1247.08
1260,1.0,0.18,0.827,0.0,0.692,47.91,80.79,-21007.84,13698.72,1536.4,898.18,1762.8,-920.08
1280,1.0,0.18,0.827,0.0,0.0,47.86,82.83,-21503.84,13478.72,1048.4,1123.18,1006.8,-741.08
1300,1.0,0.18,0.827,0.0,0.692,47.73,84.55,-21203.84,13990.72,1084.4,-25.82,1215.8,-1170.08
1320,1.0,0.191,0.0,0.0,0.692,47.54,85.96,-20871.84,13966.72,1404.4,-922.82,879.8,-1271.08
1340,1.0,0.202,0.827,0.0,0.0,47.45,87.35,-21539.84,13438.72,1616.4,-532.82,201.8,-1006.08
1360,1.0,0.169,1.0,0.0,0.0,47.29,88.89,-21835.84,13806.72,1360.4,538.18,-107.2,-787.08
1380,1.0,0.18,0.827,0.0,0.0,46.97,90.29,-21835.84,14314.72,1368.4,436.18,-747.2,-734.08
1400,1.0,0.18,0.827,0.0,0.692,46.57,91.5,-21579.84,14578.72,1304.4,-494.82,-1014.2,-860.08
1420,1.0,0.191,1.0,0.0,0.692,46.41,92.57,-22243.84,13754.72,1292.4,-1635.82,-865.2,-976.08
1440,1.0,0.202,1.0,0.0,0.0,46.23,93.41,-22127.84,13998.72,2112.4,-871.82,-1038.2,-976.08
1460,1.0,0.169,0.442,0.0,0.0,46.0,94.24,-22271.84,14034.72,2360.4,-171.82,-1644.2,-602.08
1480,1.0,0.169,0.827,0.0,0.692,45.69,94.83,-22419.84,14406.72,2736.4,-498.82,-2101.2,-529.08
1500,1.0,0.169,0.827,0.0,0.692,45.34,95.32,-22375.84,14638.72,2520.4,-1423.82,-2272.2,-827.08
1520,1.0,0.158,0.0,0.0,0.0,45.18,95.77,-22547.84,14026.72,2268.4,-2303.82,-1836.2,-910.08
1540,1.0,0.158,0.827,0.0,0.692,45.1,96.22,-22535.84,13986.72,2844.4,-933.82,-1543.2,-549.08
1560,1.0,0.147,0.0,0.0,0.692,45.01,96.47,-22791.84,14334.72,3728.4,30.18,-1616.2,-159.08
1580,1.0,0.191,1.0,0.0,0.0,44.87,96.69,-22775.84,14502.72,3664.4,-260.82,-1878.2,30.92
1600,1.0,0.18,0.827,0.0,0.0,44.75,96.81,-22895.84,14546.72,3568.4,-1022.82,-1838.2,-54.08
1620,1.0,0.125,0.827,0.0,0.692,44.7,96.86,-22867.84,14382.72,3396.4,-1806.82,-1594.2,-57.08
1640,1.0,0.169,0.827,0.0,0.692,44.66,96.79,-22587.84,14554.72,3904.4,-1506.82,-1306.2,30.92
1660,1.0,0.169,0.442,0.0,0.0,44.69,96.77,-22811.84,14154.72,3940.4,-1096.82,-1427.2,321.92
1680,1.0,0.202,0.827,0.0,0.692,44.74,96.67,-22855.84,14290.72,4252.4,-847.82,-1269.2,392.92
1700,1.0,0.191,0.827,0.0,0.0,44.76,96.56,-22803.84,14406.72,4188.4,-1102.82,-1305.2,516.92
1720,1.0,0.169,0.442,0.0,0.0,44.83,96.42,-22855.84,14410.72,3832.4,-2070.82,-1069.2,596.92
1740,1.0,0.191,1.0,0.0,0.692,44.86,96.29,-22635.84,14422.72,3996.4,-1690.82,-1226.2,787.92
1760,1.0,0.158,0.058,0.0,0.692,44.87,96.36,-22723.84,14378.72,4024.4,-288.82,-1527.2,1074.92
1780,1.0,0.169,1.0,0.0,0.692,44.71,96.41,-22447.84,15302.72,4196.4,58.18,-1546.2,1068.92
1800,1.0,0.202,0.0,0.0,0.692,44.61,96.24,-22403.84,15286.72,4192.4,-1459.82,-1266.2,561.92
1820,1.0,0.191,0.827,0.0,0.692,44.64,95.76,-22347.84,15122.72,4352.4,-3255.82,-552.2,-114.08
1840,1.0,0.18,0.827,0.0,0.0,44.87,95.24,-22987.84,13850.72,4672.4,-2886.82,-956.2,-225.08
1860,1.0,0.18,0.058,0.0,0.793,44.95,95.01,-22527.84,14246.72,5028.4,-200.82,-1188.2,311.92
1880,1.0,0.224,0.827,0.0,0.0,45.01,95.01,-22587.84,14474.72,4752.4,645.18,-1195.2,708.92
1900,1.0,0.234,0.827,0.0,0.0,45.01,94.94,-22287.84,14974.72,4604.4,-141.82,-915.2,569.92
1920,1.0,0.18,0.827,0.0,0.692,45.15,94.68,-22675.84,14738.72,4664.4,-1286.82,-557.2,186.92
1940,1.0,0.202,0.827,0.0,0.692,45.3,94.31,-22723.84,14658.72,5028.4,-1333.82,-498.2,-1.08
1960,1.0,0.202,1.0,0.0,0.692,45.43,94.07,-22695.84,14590.72,4892.4,-710.82,-703.2,147.92
1980,1.0,0.191,0.058,0.0,0.0,45.5,93.95,-22499.84,14862.72,4932.4,65.18,-732.2,435.92
2000,1.0,0.224,1.0,0.0,0.0,45.58,93.81,-22403.84,14914.72,5048.4,143.18,-537.2,477.92
2020,1.0,0.234,0.827,0.0,0.692,45.7,93.56,-22363.84,15094.72,5008.4,-684.82,-100.2,205.92
2040,1.0,0.224,0.827,0.0,0.0,45.86,93.13,-22499.84,15050.72,5280.4,-1416.82,126.8,-88.08
2060,1.0,0.224,0.827,0.0,0.692,46.09,92.79,-22599.84,14470.72,5008.4,-1329.82,-124.2,-165.08
2080,1.0,0.267,1.0,0.0,0.0,46.23,92.68,-22543.84,14734.72,5000.4,133.18,-319.2,-20.08
2100,1.0,0.147,0.827,0.0,0.0,46.37,92.64,-22499.84,14726.72,4964.4,568.18,-328.2,122.92
2120,1.0,0.169,1.0,0.0,0.0,46.49,92.57,-22435.84,14986.72,5040.4,424.18,-182.2,117.92
2140,1.0,0.169,1.0,0.0,0.692,46.66,92.44,-22595.84,14922.72,4792.4,-396.82,11.8,-26.08
2160,1.0,0.169,1.0,0.0,0.0,46.81,92.22,-22415.84,15070.72,4888.4,-872.82,161.8,-279.08
2180,1.0,0.202,0.827,0.0,0.0,47.02,92.06,-22563.84,14614.72,4772.4,-637.82,47.8,-146.08
2200,1.0,0.191,1.0,0.0,0.0,47.17,92.04,-22427.84,14674.72,4876.4,495.18,-135.2,14.92
2220,1.0,0.278,0.442,0.0,0.692,47.31,92.02,-22383.84,14750.72,4892.4,576.18,-111.2,11.92
2240,1.0,0.18,0.827,0.0,0.0,47.42,91.92,-22387.84,14970.72,4960.4,133.18,-93.2,-147.08
2260,1.0,0.18,1.0,0.0,0.692,47.53,91.79,-22291.84,15034.72,4696.4,-631.82,58.8,-387.08
2280,1.0,0.147,0.442,0.0,0.0,47.69,91.58,-22375.84,14582.72,4856.4,-797.82,-47.2,-340.08
2300,1.0,0.071,0.827,0.0,0.793,47.85,91.42,-22359.84,14518.72,5044.4,-49.82,-117.2,-173.08
2320,1.0,0.18,1.0,0.0,0.692,47.98,91.29,-22407.84,14678.72,5040.4,101.18,-176.2,-142.08
2340,1.0,0.169,0.442,0.0,0.0,48.12,91.15,-22259.84,14558.72,5028.4,-31.82,-88.2,-176.08
2360,1.0,0.136,0.827,0.0,0.0,48.28,90.98,-22375.84,14646.72,5012.4,-274.82,98.8,-326.08
2380,1.0,0.213,0.827,0.0,0.0,48.48,90.74,-22431.84,14566.72,5120.4,-495.82,265.8,-367.08
2400,1.0,0.202,1.0,0.0,0.692,48.7,90.54,-22447.84,14590.72,4960.4,-661.82,438.8,-443.08
2420,1.0,0.147,0.827,0.0,0.692,48.93,90.35,-22723.84,14522.72,5060.4,-330.82,328.8,-234.08
2440,1.0,0.18,1.0,0.0,0.692,49.12,90.24,-22651.84,14558.72,5008.4,-6.82,168.8,-103.08
2459,1.0,0.18,0.827,0.0,0.0,49.27,90.22,-22483.84,14566.72,4768.4,200.18,-0.2,14.92
2480,1.0,0.18,0.827,0.0,0.692,49.43,90.16,-22539.84,14730.72,4952.4,235.18,255.8,-49.08
2500,1.0,0.18,0.827,0.0,0.0,49.56,90.01,-22575.84,14878.72,5040.4,-236.82,220.8,-147.08
2520,1.0,0.18,1.0,0.0,0.0,49.73,89.84,-22587.84,14738.72,4788.4,-819.82,320.8,-319.08
2540,1.0,0.169,0.827,0.0,0.692,49.94,89.67,-22671.84,14306.72,4792.4,-838.82,222.8,-322.08
2560,1.0,0.202,0.0,0.0,0.692,50.11,89.6,-22507.84,14370.72,4980.4,230.18,131.8,15.92
2580,0.991,0.191,0.827,0.0,0.692,50.24,89.55,-22439.84,14594.72,5160.4,727.18,187.8,192.92
2600,1.0,0.18,0.058,0.0,0.894,50.36,89.43,-22383.84,14838.72,5212.4,239.18,433.8,87.92
2620,1.0,0.18,0.0,0.0,0.0,50.49,89.18,-22447.84,14870.72,5144.4,-730.82,487.8,-183.08
2640,1.0,0.191,1.0,0.0,0.692,50.7,89.0,-22567.84,14254.72,4852.4,-819.82,374.8,-121.08
2660,1.0,0.224,0.827,0.0,0.0,50.9,88.96,-22547.84,14214.72,4908.4,265.18,340.8,194.92
2680,1.0,0.289,0.442,0.0,0.692,51.03,89.04,-22543.84,14498.72,4884.4,944.18,150.8,457.92
2699,1.0,0.191,1.0,0.0,0.0,51.1,89.12,-22595.84,14742.72,4688.4,575.18,0.8,470.92
2720,1.0,0.158,0.058,0.0,0.0,51.16,89.08,-22455.84,14818.72,4708.4,-156.82,50.8,336.92
2740,1.0,0.136,0.058,0.0,0.692,51.27,88.93,-22535.84,14638.72,4672.4,-910.82,232.8,135.92
2760,1.0,0.202,0.827,0.0,0.692,51.4,88.78,-22567.84,14454.72,4732.4,-844.82,214.8,53.92
2780,0.991,0.169,0.827,0.0,0.894,51.51,88.71,-22523.84,14570.72,4776.4,-307.82,179.8,2.92
2799,1.0,0.18,0.0,0.0,0.0,51.6,88.67,-22651.84,14610.72,4840.4,101.18,50.8,44.92
2820,1.0,0.234,0.442,0.0,0.0,51.64,88.67,-22631.84,14770.72,4704.4,47.18,-70.2,-23.08
2840,1.0,0.234,1.0,0.0,0.0,51.68,88.59,-22583.84,14630.72,4912.4,-81.82,-187.2,39.92
2860,1.0,0.202,0.442,0.0,0.0,51.72,88.53,-22555.84,14678.72,4712.4,-323.82,-152.2,-42.08
2880,1.0,0.202,0.442,0.0,0.0,51.77,88.4,-22455.84,14530.72,4988.4,-275.82,-135.2,54.92
2899,1.0,0.213,0.827,0.0,0.692,51.82,88.29,-22447.84,14598.72,5044.4,-3.82,-6.2,33.92
2920,1.0,0.191,1.0,0.0,0.0,51.83,88.16,-22475.84,14798.72,5116.4,-53.82,-119.2,36.92
2940,1.0,0.224,0.058,0.0,0.692,51.87,88.07,-22543.84,14534.72,4932.4,-147.82,-223.2,-16.08
2960,1.0,0.234,0.442,0.0,0.0,51.89,87.98,-22287.84,14626.72,4964.4,-102.82,-110.2,-18.08
2980,1.0,0.245,1.0,0.0,0.692,51.92,87.88,-22487.84,14610.72,4932.4,-233.82,-130.2,-65.08
