timestamp,flex_1,flex_2,flex_3,flex_4,flex_5,kalman_pitch,kalman_roll,acc_x,acc_y,acc_z,gyro_x,gyro_y,gyro_z
0,0.914,0.255,0.0,0.449,0.0,148.57,98.98,40.48,-1343.44,14463.68,1945.86,6573.0,2789.3
19,0.95,0.553,0.03,0.282,0.0,97.54,62.09,432.48,-1927.44,13911.68,945.86,6473.0,1369.3
40,0.91,0.295,0.0,0.26,0.041,67.45,39.39,148.48,-2831.44,14119.68,61.86,5182.0,144.3
60,1.0,0.0,0.602,0.0,0.0,47.2,23.36,-19.52,-3291.44,13363.68,-489.14,4114.0,-677.7
80,0.981,0.198,0.0,0.276,0.937,32.28,11.82,316.48,-3139.44,13459.68,-1488.14,2632.0,-909.7
100,0.929,0.279,0.0,0.546,0.0,21.15,1.06,-467.52,-5163.44,12323.68,-5992.14,-331.0,-663.7
121,0.952,0.086,0.281,0.373,0.0,12.98,-9.19,-1251.52,-9423.44,12363.68,-11969.14,-4006.0,348.3
141,0.95,0.134,0.007,0.239,0.0,6.19,-18.8,-1351.52,-12971.44,10995.68,-13970.14,-8117.0,1792.3
161,0.887,0.19,0.19,0.363,0.0,0.05,-27.25,-463.52,-14071.44,9435.68,-12409.14,-9917.0,2138.3
181,0.68,0.11,0.259,0.152,0.0,-4.87,-33.51,-1675.52,-15431.44,11723.68,-8840.14,-10044.0,2881.3
201,0.477,0.206,0.0,0.33,0.0,-9.21,-38.56,-1247.52,-14895.44,10683.68,-4214.14,-8741.0,6523.3
220,0.326,0.198,0.076,0.363,0.0,-12.69,-42.63,-363.52,-14527.44,11231.68,-2496.14,-4472.0,12272.3
241,0.527,0.045,0.236,0.357,0.0,-15.07,-46.47,-1083.52,-16087.44,12423.68,-5227.14,-1128.0,16766.3
261,0.423,0.174,0.327,0.217,0.0,-17.04,-50.39,-835.52,-17119.44,13307.68,-9228.14,-53.0,19016.3
281,0.459,0.062,0.854,0.152,0.0,-18.85,-54.87,-199.52,-17399.44,11791.68,-13663.14,606.0,20664.3
301,0.568,0.045,0.0,0.799,0.549,-20.46,-59.69,236.48,-17947.44,11175.68,-17688.14,1268.0,21130.3
321,0.378,0.029,0.19,0.282,0.464,-22.16,-64.35,0.48,-17047.44,12035.68,-20242.14,-157.0,21073.3
341,0.235,0.0,0.465,0.325,0.008,-24.2,-69.19,564.48,-17843.44,11091.68,-22562.14,-3087.0,21754.3
361,0.342,0.456,0.0,0.298,0.0,-26.57,-74.16,1752.48,-17319.44,9591.68,-24242.14,-5067.0,22944.3
381,0.5,0.0,0.167,0.19,0.0,-28.95,-79.13,1888.48,-16539.44,8883.68,-25712.14,-5607.0,23547.3
400,0.488,0.062,0.0,0.341,0.0,-31.29,-84.21,1448.48,-16715.44,8107.68,-27802.14,-6786.0,24027.3
421,0.4,0.0,0.487,0.325,0.008,-33.73,-89.03,1124.48,-16119.44,7511.68,-27572.14,-8394.0,24418.3
441,0.386,0.102,0.396,0.266,0.0,-36.19,-93.33,248.48,-16075.44,7135.68,-25507.14,-10268.0,24892.3
460,0.376,0.062,0.281,0.185,0.058,-38.78,-97.12,-15.52,-15031.44,6735.68,-23269.14,-11900.0,24779.3
481,0.369,0.255,0.0,0.368,0.0,-41.33,-100.63,-887.52,-13499.44,5799.68,-21853.14,-12663.0,24461.3
501,0.463,0.045,0.35,0.287,0.0,-43.68,-103.97,-1663.52,-11447.44,4987.68,-20829.14,-11911.0,23364.3
521,0.494,0.0,0.899,0.12,0.396,-45.51,-107.15,-3347.52,-12203.44,4807.68,-21030.14,-11343.0,22347.3
541,0.552,0.158,0.487,0.363,0.0,-46.99,-110.18,-3807.52,-12855.44,4567.68,-20962.14,-10592.0,20492.3
561,0.502,0.126,0.0,0.239,0.227,-48.38,-113.36,-3203.52,-11043.44,2655.68,-20560.14,-9229.0,19118.3
580,0.452,0.665,1.0,0.271,0.008,-49.3,-116.9,-4483.52,-8047.44,1391.68,-21384.14,-6597.0,18419.3
601,0.419,0.198,0.0,0.33,0.0,-49.78,-120.89,-4039.52,-10139.44,471.68,-25746.14,-4784.0,17975.3
621,0.429,0.392,0.0,0.373,0.549,-50.33,-125.36,-3275.52,-11163.44,-1028.32,-29378.14,-5510.0,17548.3
641,0.396,0.0,0.0,0.648,0.0,-51.0,-129.85,-5799.52,-8963.44,-1352.32,-29727.14,-8653.0,18025.3
661,0.278,0.214,0.0,0.179,0.904,-52.2,-134.21,-5651.52,-9067.44,-2540.32,-29307.14,-12848.0,19506.3
681,0.519,0.343,0.0,0.325,0.0,-54.15,-138.0,-4851.52,-9039.44,-2820.32,-26785.14,-17851.0,19600.3
700,0.512,0.174,0.0,0.303,0.0,-56.6,-141.48,-4023.52,-6627.44,-3904.32,-23147.14,-20730.0,18173.3
720,0.49,0.231,0.0,0.271,0.0,-59.12,-144.71,-5079.52,-6319.44,-4240.32,-22163.14,-23555.0,17286.3
741,0.62,0.198,0.67,0.692,0.092,-61.83,-147.38,-8283.52,-4871.44,-1964.32,-20776.14,-29010.0,17874.3
761,0.541,0.078,0.739,0.379,0.836,-65.02,-149.43,-7975.52,-5603.44,-4116.32,-15942.14,-34019.0,16849.3
781,0.519,0.11,0.0,0.417,0.599,-68.4,-150.94,-6543.52,-3011.44,-3764.32,-10569.14,-34019.0,15062.3
801,0.419,0.673,0.0,0.109,0.0,-71.55,-152.98,-6435.52,796.56,-5320.32,-8079.14,-33464.0,13277.3
821,0.423,0.0,0.0,0.39,0.0,-74.08,-154.77,-8055.52,516.56,-2656.32,-9648.14,-31792.0,12288.3
841,0.635,0.0,1.0,0.476,1.0,-75.71,-156.51,-11091.52,640.56,-1932.32,-10574.14,-32711.0,12259.3
860,0.392,0.013,0.556,0.217,1.0,-76.68,-158.92,-12971.52,2584.56,-1660.32,-11971.14,-33679.0,10641.3
881,0.409,0.0,0.0,0.104,0.921,-76.65,-161.12,-14543.52,3344.56,843.68,-11933.14,-34019.0,8694.3
901,0.347,0.0,0.0,0.26,0.0,-74.72,-146.85,-17363.52,7688.56,3587.68,-10542.14,-34019.0,7082.3
920,0.446,0.0,0.0,0.298,0.447,-71.66,-138.43,-22363.52,7004.56,8291.68,-9707.14,-34019.0,6314.3
941,0.39,0.866,0.0,0.438,1.0,-69.36,-129.38,-25759.52,11316.56,10567.68,-9447.14,-34019.0,5469.3
961,0.357,0.263,0.281,0.0,0.0,-67.09,-123.01,-28647.52,8280.56,17499.68,-11111.14,-31734.0,4531.3
981,0.39,1.0,0.03,0.487,0.0,-64.78,-117.06,-30787.52,6908.56,26763.68,-8961.14,-26842.0,2546.3
1000,0.417,0.206,0.076,0.46,0.092,-62.32,-110.5,-29815.52,7304.56,33735.68,-3325.14,-22176.0,-84.7
1020,0.452,0.0,0.0,0.19,0.396,-59.23,-102.97,-28955.52,10084.56,36527.68,3120.86,-16165.0,-1710.7
1041,0.309,1.0,1.0,0.363,0.008,-55.29,-94.94,-27959.52,11408.56,37543.68,7803.86,-8878.0,-1957.7
1060,0.324,0.239,1.0,0.244,0.16,-50.52,-86.75,-26891.52,13480.56,35307.68,9345.86,-2181.0,-800.7
1080,0.419,0.0,0.0,0.309,0.0,-44.86,-78.91,-27399.52,14772.56,32083.68,7589.86,4015.0,798.3
1101,0.367,0.0,0.0,0.19,0.0,-38.52,-71.43,-27155.52,15404.56,28683.68,5744.86,9456.0,1460.3
1121,0.351,0.295,1.0,1.0,0.0,-32.16,-64.43,-27519.52,15180.56,26111.68,3651.86,10140.0,1747.3
1141,0.369,0.198,0.144,0.19,0.0,-25.54,-58.37,-27907.52,10684.56,23111.68,2423.86,11219.0,-625.7
1161,0.423,0.0,0.762,0.454,0.396,-18.92,-52.34,-28395.52,9308.56,20251.68,4506.86,10825.0,-3693.7
1181,0.39,0.0,0.236,0.535,0.0,-12.25,-46.3,-29303.52,7656.56,18743.68,8367.86,11149.0,-6021.7
1201,0.459,0.0,0.0,0.179,0.0,-5.46,-39.82,-28635.52,6620.56,16631.68,14518.86,12398.0,-7554.7
1221,0.448,0.037,0.0,0.39,1.0,1.44,-33.02,-27099.52,6384.56,13991.68,18594.86,13479.0,-8799.7
1241,0.342,0.0,0.0,0.433,0.633,8.54,-26.01,-23339.52,6712.56,10715.68,18958.86,15077.0,-10213.7
1261,0.434,0.327,0.0,1.0,0.0,16.73,-12.87,-19883.52,6340.56,4927.68,15376.86,21195.0,-12225.7
1281,0.425,0.0,0.648,1.0,1.0,24.13,-17.74,-20055.52,3692.56,423.68,8105.86,27629.0,-13388.7
1301,0.369,0.126,0.0,0.0,0.0,30.54,-21.95,-20783.52,-3295.44,-3180.32,2491.86,29923.0,-14111.7
1321,0.496,0.247,0.0,0.282,0.0,35.9,-26.71,-17647.52,-3503.44,-10896.32,3345.86,31516.0,-13283.7
1341,0.496,1.0,0.648,0.287,0.0,40.48,-31.93,-14915.52,-1683.44,-16096.32,2870.86,31516.0,-11613.7
1361,0.502,0.0,1.0,0.406,1.0,44.97,-37.15,-16779.52,-8603.44,-15112.32,-3843.14,31516.0,-9457.7
1381,0.604,0.062,0.0,0.616,0.0,48.15,-43.4,-19859.52,-12959.44,-16932.32,-13968.14,22777.0,-6422.7
1401,0.587,0.0,0.0,0.309,0.295,48.51,-50.2,-20167.52,-9735.44,-19080.32,-16640.14,4377.0,-1955.7
1421,0.55,0.206,0.602,0.0,0.008,47.22,-55.84,-18835.52,-9715.44,-17280.32,-11097.14,-5996.0,1973.3
1441,0.554,0.19,1.0,0.519,0.0,44.78,-60.54,-17363.52,-7387.44,-15876.32,-5085.14,-13567.0,4673.3
1460,0.498,0.472,1.0,0.19,0.0,41.58,-65.51,-17599.52,-2291.44,-15092.32,-4464.14,-20184.0,6842.3
1481,0.494,0.464,0.0,0.0,0.447,37.98,-70.65,-18655.52,-1215.44,-10052.32,-7602.14,-26300.0,8965.3
1501,0.788,0.891,0.0,0.244,0.836,33.81,-75.19,-19251.52,-3811.44,-6084.32,-9980.14,-32999.0,9496.3
1521,0.732,0.223,0.854,0.018,0.0,29.84,-78.42,-18783.52,-4495.44,-1816.32,-7036.14,-34019.0,8438.3
1541,0.49,0.214,0.648,0.929,0.0,26.6,-81.14,-19627.52,-975.44,-1068.32,-907.14,-34019.0,8755.3
1561,0.444,0.0,0.304,0.4,0.0,23.96,-84.44,-17951.52,3680.56,963.68,2506.86,-34019.0,8957.3
1580,0.299,0.472,0.0,0.19,0.0,22.81,-73.59,-18499.52,7428.56,5599.68,2795.86,-34019.0,10793.3
1600,0.591,0.134,1.0,0.875,0.21,21.34,-66.85,-21331.52,12580.56,14051.68,1199.86,-26172.0,11566.3
1620,0.168,0.142,0.0,0.098,0.0,20.55,-61.88,-22907.52,11580.56,19711.68,-2834.14,-20324.0,9491.3
1640,0.357,0.214,1.0,0.508,0.0,19.94,-57.39,-22503.52,12576.56,21451.68,-5226.14,-17862.0,5124.3
1660,0.193,0.0,1.0,0.427,0.0,20.23,-52.77,-23175.52,14748.56,23547.68,-4249.14,-11094.0,3267.3
1680,0.297,0.384,0.396,0.594,0.363,21.57,-48.56,-23779.52,13884.56,27715.68,-3633.14,-2979.0,2655.3
1701,0.488,0.0,0.0,0.0,0.0,23.77,-44.51,-24999.52,14276.56,28143.68,-3835.14,2886.0,1061.3
1720,0.674,0.214,0.0,0.077,0.109,26.57,-40.69,-25567.52,15380.56,25631.68,-6199.14,6613.0,-327.7
1741,0.498,0.102,0.0,0.244,0.008,29.96,-37.88,-27031.52,12072.56,23523.68,-10084.14,9063.0,-786.7
1761,0.09,0.255,0.144,0.201,0.566,33.56,-36.18,-28823.52,6648.56,22723.68,-11277.14,9483.0,-1886.7
1781,0.316,0.231,0.579,0.19,0.0,37.06,-34.64,-30575.52,3320.56,20439.68,-7506.14,7532.0,-3240.7
1801,0.409,0.255,0.0,0.4,1.0,40.51,-32.22,-31155.52,3400.56,17703.68,-449.14,6044.0,-3732.7
1821,0.199,0.351,0.625,0.039,0.295,44.09,-29.27,-31015.52,4000.56,14155.68,3938.86,5163.0,-4022.7
1841,0.425,1.0,1.0,0.0,0.904,47.68,-26.86,-31387.52,4000.56,11507.68,3005.86,3777.0,-4000.7
1860,0.527,0.52,0.0,0.217,1.0,51.1,-25.04,-31123.52,3828.56,9711.68,3119.86,2180.0,-2341.7
1881,0.342,0.0,1.0,0.0,0.0,54.04,-23.81,-29887.52,4160.56,9231.68,-800.14,-454.0,-1245.7
1899,0.342,0.4,0.0,0.708,0.0,56.97,-21.43,-28459.52,5316.56,8827.68,301.86,-150.0,195.3
1921,0.282,0.705,0.236,0.336,0.0,59.7,-18.65,-27543.52,5884.56,9103.68,-425.14,-116.0,1503.3
1941,0.226,0.0,0.0,0.12,0.0,62.3,-16.25,-26795.52,5752.56,9087.68,-1373.14,-128.0,2320.3
1961,0.533,1.0,0.0,0.0,1.0,64.5,-13.51,-26287.52,6368.56,9839.68,-1184.14,-746.0,2910.3
1980,0.517,0.754,1.0,0.163,0.0,66.48,-10.6,-25983.52,6724.56,9891.68,-983.14,-1277.0,2506.3
2000,0.535,0.48,1.0,0.438,0.0,68.42,-8.04,-25315.52,6332.56,9655.68,-947.14,-1166.0,1176.3
2020,0.222,0.247,1.0,0.346,0.0,70.31,-5.65,-25699.52,6164.56,9991.68,-30.14,-643.0,664.3
2040,0.255,0.52,1.0,0.152,0.0,72.22,-3.4,-26075.52,6060.56,10239.68,472.86,238.0,308.3
2060,0.309,0.303,0.0,0.255,0.21,74.02,-1.3,-26491.52,6096.56,10531.68,172.86,445.0,175.3
2080,0.332,0.4,0.03,0.152,1.0,75.78,0.53,-26731.52,5924.56,10439.68,-222.14,499.0,330.3
2100,0.299,0.19,0.0,0.616,0.0,77.52,2.33,-26791.52,5992.56,10367.68,-309.14,863.0,419.3
2120,0.336,0.0,1.0,0.217,0.0,79.18,3.85,-26935.52,5716.56,10667.68,-189.14,1220.0,307.3
2140,0.121,0.239,0.0,0.255,1.0,80.67,5.24,-27311.52,5568.56,10879.68,139.86,765.0,305.3
2160,0.384,0.384,0.945,0.363,0.278,82.01,6.43,-27539.52,5244.56,10799.68,673.86,97.0,-1.7
2180,0.299,0.271,0.0,0.0,0.261,83.29,7.65,-27379.52,5152.56,10667.68,1745.86,156.0,-227.7
2200,0.438,0.214,0.648,0.756,0.549,84.65,9.64,-27307.52,6180.56,10235.68,2603.86,721.0,-110.7
2220,0.438,0.0,0.67,0.255,0.0,86.0,12.07,-27799.52,7196.56,10299.68,1823.86,1438.0,319.3
2240,0.26,0.295,0.121,1.0,0.16,87.31,13.57,-28291.52,6420.56,10599.68,-120.14,1601.0,581.3
2261,0.423,0.472,1.0,0.233,0.0,88.46,14.2,-28575.52,5348.56,11075.68,-845.14,1316.0,571.3
2280,0.378,0.0,1.0,0.363,0.008,89.45,14.8,-28519.52,5132.56,11263.68,149.86,908.0,552.3
2300,0.429,0.424,0.465,0.465,0.0,90.35,16.06,-28419.52,6088.56,10971.68,1049.86,509.0,634.3
2320,0.334,0.705,0.0,0.276,1.0,91.17,17.67,-28155.52,6832.56,10803.68,763.86,395.0,787.3
2340,0.608,0.0,0.0,1.0,0.0,91.95,18.97,-27915.52,6696.56,10827.68,-230.14,622.0,864.3
2360,0.262,0.0,0.67,0.519,0.0,92.68,19.91,-27987.52,6332.56,10947.68,-717.14,634.0,794.3
2380,0.162,0.343,0.0,1.0,0.0,93.45,20.65,-27847.52,5952.56,10363.68,-431.14,542.0,605.3
2400,0.427,0.086,1.0,0.174,1.0,94.09,21.69,-27651.52,6408.56,10451.68,-57.14,307.0,561.3
2420,0.289,0.456,0.0,0.26,0.143,94.71,22.7,-27643.52,6384.56,10091.68,-106.14,92.0,581.3
2440,0.322,0.979,0.0,0.228,0.008,95.26,23.66,-27187.52,6356.56,9967.68,-123.14,-81.0,243.3
2460,0.301,0.0,1.0,0.276,0.0,95.81,24.53,-27119.52,6164.56,9775.68,416.86,-57.0,-25.7
2480,0.127,0.126,0.0,0.0,0.0,96.32,25.66,-27031.52,6488.56,9791.68,851.86,80.0,-194.7
2499,0.291,0.553,0.0,0.109,0.075,96.82,26.74,-27103.52,6544.56,9743.68,633.86,296.0,-253.7
2520,0.253,0.0,0.0,0.179,0.836,97.31,27.67,-27263.52,6484.56,9659.68,147.86,281.0,-80.7
2540,0.388,0.0,0.0,0.0,0.0,97.67,28.47,-27259.52,6624.56,10059.68,-412.14,247.0,149.3
2560,0.351,1.0,0.0,0.0,0.0,98.06,28.89,-27411.52,6184.56,9903.68,-741.14,321.0,141.3
2580,0.243,0.665,0.259,0.967,0.075,98.33,29.2,-27519.52,6092.56,10363.68,-356.14,259.0,33.3
2600,0.023,0.319,0.0,0.568,1.0,98.56,29.72,-27667.52,6284.56,10243.68,288.86,58.0,-90.7
2620,0.707,0.005,0.0,0.735,0.0,98.69,30.31,-27391.52,6472.56,10471.68,429.86,-56.0,-160.7
2640,0.374,0.0,0.121,0.476,0.0,98.84,30.86,-27407.52,6412.56,10123.68,317.86,-126.0,-145.7
2660,0.289,0.19,0.0,1.0,0.0,99.01,31.37,-27311.52,6408.56,10055.68,248.86,146.0,-213.7
2680,0.137,0.0,0.144,0.05,0.0,99.23,31.76,-27591.52,6300.56,9959.68,124.86,416.0,-64.7
2700,0.276,0.214,0.19,0.363,0.0,99.42,32.0,-27751.52,6236.56,10047.68,-263.14,541.0,71.3
2720,0.351,0.118,1.0,0.438,0.0,99.57,32.14,-27939.52,6196.56,10119.68,-434.14,426.0,307.3
2740,0.378,0.021,1.0,0.0,0.582,99.7,32.2,-27907.52,6084.56,9983.68,-393.14,350.0,367.3
2759,0.394,0.577,0.762,0.53,1.0,99.72,32.37,-27823.52,6288.56,10323.68,-175.14,220.0,366.3
2780,0.392,0.311,0.121,0.363,0.227,99.69,32.64,-27639.52,6468.56,10347.68,-123.14,136.0,273.3
2800,0.413,0.456,1.0,1.0,0.0,99.6,32.86,-27623.52,6488.56,10507.68,-141.14,-3.0,124.3
2820,0.291,0.214,0.0,0.271,0.0,99.53,32.99,-27551.52,6296.56,10319.68,67.86,86.0,39.3
2840,0.26,0.287,0.0,0.0,0.126,99.44,33.14,-27575.52,6400.56,10523.68,116.86,272.0,-74.7
2860,0.305,0.762,0.0,0.535,0.87,99.33,33.14,-27767.52,6248.56,10423.68,-180.14,109.0,-35.7
2880,0.301,0.553,0.281,0.169,0.16,99.17,32.79,-27887.52,5800.56,10439.68,-369.14,-278.0,-46.7
2900,0.351,0.0,0.0,0.071,0.0,98.99,32.55,-27859.52,5856.56,10151.68,50.86,-599.0,-97.7
2920,0.454,0.07,1.0,0.266,0.65,98.87,32.87,-27643.52,6436.56,9751.68,570.86,-435.0,-49.7
2940,0.293,0.0,0.648,0.131,0.0,98.75,33.35,-27467.52,6752.56,9831.68,524.86,-46.0,111.3
2960,0.382,0.271,1.0,0.282,0.0,98.61,33.55,-27551.52,6520.56,9963.68,79.86,-30.0,208.3
2980,0.461,0.44,0.076,0.0,0.0,98.41,33.44,-27647.52,6188.56,10147.68,-0.14,-340.0,115.3
