timestamp,flex_1,flex_2,flex_3,flex_4,flex_5,kalman_pitch,kalman_roll,acc_x,acc_y,acc_z,gyro_x,gyro_y,gyro_z
0,1.0,0.159,0.756,0.817,0.901,-6.16,31.23,-1321.6,-768.72,18627.52,2044.4,2692.02,-1208.7
19,1.0,0.135,0.884,0.842,1.0,-23.6,6.73,-2053.6,-1172.72,19027.52,1695.4,2881.02,-933.7
40,1.0,0.135,0.627,0.823,1.0,-31.45,-2.82,-1497.6,-840.72,18315.52,1492.4,2488.02,-552.7
58,1.0,0.119,1.0,0.88,1.0,-35.82,-7.71,-1157.6,-500.72,18095.52,1364.4,4783.02,-191.7
77,1.0,0.135,0.82,0.798,1.0,-38.74,-10.01,-473.6,323.28,18075.52,1501.4,6761.02,37.3
97,1.0,0.135,0.82,0.773,1.0,-39.06,-11.53,-1989.6,-92.72,20207.52,1081.4,8237.02,1216.3
118,1.0,0.135,0.884,0.773,1.0,-38.43,-13.81,-1765.6,-2624.72,21303.52,1828.4,10383.02,2277.3
137,1.0,0.127,1.0,0.786,1.0,-37.05,-15.84,-2057.6,-3448.72,22107.52,1263.4,14431.02,2568.3
156,1.0,0.095,1.0,0.811,0.967,-34.8,-17.7,-4309.6,-5012.72,24447.52,724.4,13706.02,4545.3
175,1.0,0.087,1.0,0.892,1.0,-33.73,-20.42,-1589.6,-6448.72,22047.52,-1558.6,13678.02,5683.3
194,1.0,0.079,1.0,1.0,0.835,-31.81,-22.85,-2973.6,-8308.72,25315.52,-3130.6,14820.02,7461.3
214,1.0,0.143,1.0,1.0,1.0,-29.29,-25.46,-4497.6,-10108.72,27015.52,-5786.6,16893.02,11017.3
232,1.0,0.095,0.0,0.979,1.0,-26.78,-27.08,-5181.6,-6712.72,27967.52,-5981.6,18300.02,15263.3
251,1.0,0.087,0.884,1.0,1.0,-24.19,-28.29,-4837.6,-7792.72,27995.52,-2462.6,20777.02,19400.3
270,1.0,0.047,1.0,1.0,1.0,-21.37,-29.35,-6305.6,-8708.72,27123.52,-146.6,22206.02,21310.3
289,1.0,0.047,1.0,1.0,0.835,-18.53,-29.22,-6613.6,-6932.72,29035.52,4486.4,23380.02,22329.3
308,1.0,0.151,1.0,0.979,1.0,-15.07,-28.75,-9161.6,-10500.72,29891.52,10579.4,25664.02,23217.3
327,1.0,0.055,1.0,0.979,0.769,-11.64,-27.13,-8465.6,-6676.72,29795.52,15219.4,28697.02,23336.3
346,1.0,0.023,1.0,0.823,1.0,-7.26,-24.69,-13225.6,-1684.72,31363.52,15462.4,31583.02,24157.3
366,1.0,0.031,0.884,0.674,1.0,-3.07,-23.66,-12793.6,-3436.72,31587.52,8117.4,31583.02,23829.3
386,1.0,0.031,0.756,0.586,0.967,1.13,-22.62,-14621.6,-4424.72,32031.52,9588.4,31583.02,28061.3
406,1.0,0.015,1.0,0.617,0.967,5.1,-20.36,-14977.6,-3896.72,30099.52,18726.4,31583.02,32113.3
426,1.0,0.031,1.0,0.505,1.0,9.27,-16.77,-17609.6,1659.28,30055.52,22496.4,31583.02,31269.3
446,1.0,0.031,0.884,0.468,1.0,13.56,-13.83,-18873.6,2559.28,26063.52,18604.4,31583.02,26977.3
466,1.0,0.015,0.82,0.48,1.0,18.11,-10.15,-20329.6,5735.28,22791.52,19543.4,31583.02,25704.3
486,1.0,0.007,0.884,0.48,0.769,22.53,-5.74,-19701.6,5747.28,19695.52,24980.4,31583.02,26006.3
506,1.0,0.007,1.0,0.437,0.967,27.16,0.3,-20637.6,9623.28,16311.52,25929.4,31583.02,23086.3
526,1.0,0.007,1.0,0.449,1.0,32.19,5.88,-21793.6,8907.28,14411.52,23229.4,31583.02,19036.3
546,1.0,0.015,0.82,0.437,1.0,37.09,11.6,-22609.6,10359.28,12755.52,18943.4,31583.02,11955.3
566,1.0,0.015,0.884,0.405,1.0,41.71,16.86,-21989.6,10335.28,11387.52,13743.4,31583.02,4583.3
586,1.0,0.007,1.0,0.405,1.0,45.76,21.62,-21689.6,9587.28,10583.52,10311.4,28273.02,790.3
606,1.0,0.015,0.884,0.412,1.0,49.37,26.77,-21889.6,9231.28,9527.52,10635.4,25286.02,534.3
626,1.0,0.007,1.0,0.38,1.0,52.71,31.95,-22409.6,8939.28,8927.52,10060.4,23332.02,-327.7
646,1.0,0.007,1.0,0.387,1.0,55.2,36.8,-22473.6,9467.28,8811.52,8553.4,19954.02,-1107.7
666,1.0,0.007,1.0,0.387,1.0,57.28,41.26,-23433.6,9087.28,8351.52,5489.4,16057.02,-2759.7
686,1.0,0.007,0.949,0.349,1.0,58.53,45.72,-22769.6,9127.28,7939.52,4895.4,12119.02,-2360.7
706,1.0,0.007,0.884,0.393,1.0,59.37,50.07,-22149.6,8695.28,7795.52,4787.4,9778.02,-2040.7
726,1.0,0.0,0.82,0.349,1.0,60.02,53.99,-22609.6,8947.28,8075.52,4722.4,8804.02,-1876.7
746,1.0,0.0,0.691,0.349,0.835,60.67,57.14,-24713.6,9051.28,8683.52,3779.4,6815.02,-1380.7
766,1.0,0.007,0.756,0.318,1.0,61.17,60.16,-24121.6,8147.28,8375.52,2766.4,4679.02,-911.7
786,1.0,0.007,0.884,0.349,1.0,61.74,63.04,-24345.6,8319.28,8251.52,2180.4,5478.02,-1033.7
806,1.0,0.0,0.884,0.362,1.0,62.27,65.99,-25569.6,8967.28,7999.52,2287.4,5576.02,737.3
826,1.0,0.0,1.0,0.343,1.0,62.4,69.27,-25865.6,9859.28,7035.52,1702.4,4614.02,1305.3
845,1.0,0.0,0.82,0.28,1.0,62.47,72.95,-25545.6,9155.28,6019.52,584.4,3682.02,640.3
866,1.0,0.0,0.949,0.343,0.967,62.53,76.9,-25221.6,8603.28,5435.52,261.4,3554.02,960.3
886,1.0,0.0,0.82,0.324,0.703,62.18,80.08,-26033.6,10655.28,5667.52,437.4,3017.02,1595.3
906,1.0,0.007,0.949,0.299,1.0,61.8,83.16,-26469.6,10255.28,5363.52,-605.6,1807.02,1335.3
926,1.0,0.0,0.82,0.318,1.0,61.28,86.12,-26445.6,11019.28,5095.52,-160.6,1945.02,1312.3
946,1.0,0.007,1.0,0.343,1.0,60.75,89.12,-26609.6,11115.28,4875.52,632.4,1827.02,1875.3
966,1.0,0.0,0.884,0.337,1.0,60.33,91.96,-27153.6,11367.28,4795.52,780.4,2220.02,2198.3
986,1.0,0.0,0.884,0.318,1.0,59.74,94.47,-27741.6,11615.28,4747.52,-311.6,692.02,2020.3
1006,1.0,0.0,0.82,0.318,1.0,58.89,96.95,-26429.6,11403.28,4455.52,-551.6,-269.98,1375.3
1026,1.0,0.0,0.884,0.324,1.0,58.2,99.35,-26461.6,11583.28,4375.52,-182.6,799.02,815.3
1046,1.0,0.0,0.756,0.343,1.0,57.64,101.57,-27681.6,11847.28,4751.52,819.4,327.02,1221.3
1066,1.0,0.0,0.756,0.318,1.0,56.96,103.56,-27373.6,11879.28,5079.52,992.4,-515.98,1228.3
1086,1.0,0.0,0.756,0.299,1.0,56.31,105.35,-27509.6,11475.28,5099.52,78.4,-1294.98,518.3
1106,1.0,0.0,0.756,0.305,1.0,55.68,107.01,-27017.6,11555.28,4855.52,-605.6,-785.98,-181.7
1125,1.0,0.0,0.884,0.268,1.0,55.27,108.83,-26573.6,10727.28,4619.52,-57.6,-235.98,396.3
1145,1.0,0.007,1.0,0.299,1.0,54.98,110.61,-27381.6,11059.28,4659.52,536.4,258.02,957.3
1165,1.0,0.175,0.884,0.287,1.0,54.47,112.25,-27477.6,11591.28,4423.52,258.4,-691.98,957.3
1185,1.0,0.0,0.627,0.312,1.0,53.92,113.76,-26937.6,11407.28,4415.52,-183.6,-992.98,249.3
1205,1.0,0.143,0.82,0.28,1.0,53.47,115.21,-26653.6,11035.28,4311.52,-649.6,-665.98,68.3
1225,1.0,0.0,0.756,0.287,1.0,53.26,116.65,-26901.6,10791.28,4363.52,-340.6,248.02,397.3
1245,1.0,0.0,0.627,0.312,1.0,53.14,118.08,-27517.6,10847.28,4467.52,517.4,259.02,1275.3
1265,1.0,0.0,1.0,0.274,1.0,52.96,119.27,-27701.6,11255.28,4523.52,152.4,73.02,1018.3
1285,0.96,0.0,0.82,0.312,1.0,52.73,120.3,-27837.6,11479.28,4359.52,-596.6,-187.98,91.3
1305,0.96,0.0,1.0,0.262,1.0,52.45,121.35,-27593.6,11159.28,4247.52,-706.6,-738.98,175.3
1325,0.96,0.007,0.82,0.287,0.901,52.18,122.33,-26917.6,11379.28,4355.52,-145.6,-69.98,442.3
1345,1.0,0.0,0.884,0.287,0.307,52.07,123.12,-27693.6,11631.28,4575.52,-224.6,356.02,251.3
1365,1.0,0.007,0.82,0.274,0.769,51.93,123.93,-27409.6,11311.28,4371.52,-500.6,143.02,-225.7
1385,1.0,0.007,0.756,0.312,1.0,51.75,124.63,-27261.6,11475.28,4419.52,-643.6,-9.98,-545.7
1404,1.0,0.007,0.884,0.324,1.0,51.73,125.29,-27465.6,11035.28,4559.52,-313.6,147.02,-387.7
1424,0.96,0.0,0.82,0.28,1.0,51.67,125.95,-27549.6,11443.28,4339.52,-436.6,458.02,-511.7
1444,0.912,0.007,1.0,0.312,1.0,51.59,126.52,-27589.6,11335.28,4255.52,-1063.6,176.02,-259.7
1464,1.0,0.0,0.82,0.174,0.901,51.46,127.15,-27109.6,10999.28,4143.52,-1042.6,-179.98,-24.7
1483,0.912,0.0,1.0,0.299,1.0,51.41,127.64,-26949.6,11143.28,4343.52,-695.6,353.02,-63.7
1503,1.0,0.0,0.498,0.28,1.0,51.38,128.17,-27485.6,11071.28,4343.52,-622.6,63.02,281.3
1523,0.96,0.0,0.82,0.28,0.505,51.17,128.59,-26929.6,11779.28,4151.52,-794.6,69.02,19.3
1543,0.96,0.0,1.0,0.293,1.0,51.04,129.0,-27221.6,11467.28,4163.52,-869.6,-91.98,166.3
1563,0.912,0.0,0.627,0.274,0.901,50.91,129.35,-27401.6,11559.28,4219.52,-868.6,-204.98,713.3
1583,1.0,0.0,1.0,0.274,1.0,50.65,129.59,-27093.6,12087.28,4079.52,-1150.6,-397.98,440.3
1603,0.96,0.0,1.0,0.28,0.901,50.44,129.71,-27017.6,12191.28,4407.52,-993.6,-101.98,173.3
1623,1.0,0.0,0.82,0.268,1.0,50.26,129.87,-27385.6,12135.28,4335.52,-799.6,-358.98,258.3
1643,0.912,0.0,0.82,0.187,1.0,50.07,129.96,-27429.6,12407.28,4523.52,-543.6,-332.98,-33.7
1662,0.96,0.0,0.82,0.28,0.637,49.94,130.07,-27597.6,11983.28,4431.52,-459.6,-679.98,167.3
1682,0.865,0.0,0.884,0.262,0.769,49.85,130.25,-27025.6,11791.28,4627.52,74.4,-187.98,445.3
1702,1.0,0.0,0.884,0.274,1.0,49.91,130.35,-27493.6,11655.28,4655.52,-369.6,320.02,203.3
1722,0.912,0.0,1.0,0.274,0.967,49.92,130.47,-27609.6,11923.28,4463.52,-276.6,162.02,485.3
1742,0.912,0.0,0.884,0.262,1.0,49.87,130.6,-27457.6,11743.28,4391.52,-383.6,-287.98,562.3
1762,0.865,0.0,1.0,0.28,1.0,49.78,130.59,-27421.6,12003.28,4459.52,-809.6,-309.98,318.3
1782,0.912,0.0,0.82,0.274,1.0,49.67,130.74,-26597.6,11583.28,4315.52,-351.6,-352.98,720.3
1802,0.912,0.0,0.82,0.237,1.0,49.62,130.82,-26925.6,12147.28,4419.52,69.4,343.02,433.3
1822,1.0,0.0,0.82,0.274,0.901,49.62,130.83,-27189.6,12091.28,4483.52,-181.6,333.02,-85.7
1841,1.0,0.0,1.0,0.268,0.967,49.62,130.83,-27693.6,12251.28,4471.52,-41.6,74.02,74.3
1862,0.912,0.0,0.756,0.262,1.0,49.66,130.86,-27633.6,11891.28,4559.52,149.4,-14.98,247.3
1881,0.96,0.0,1.0,0.268,1.0,49.65,130.87,-27421.6,12143.28,4411.52,13.4,39.02,-81.7
1902,0.817,0.0,0.82,0.212,1.0,49.69,130.93,-27185.6,11923.28,4403.52,266.4,377.02,-249.7
1922,0.912,0.039,0.82,0.268,1.0,49.8,131.01,-27321.6,11831.28,4443.52,500.4,590.02,-37.7
1942,0.912,0.0,0.82,0.249,0.505,49.88,130.96,-27429.6,12067.28,4535.52,168.4,534.02,-212.7
1962,0.865,0.0,0.949,0.274,1.0,49.87,130.86,-27049.6,12271.28,4443.52,-141.6,385.02,-682.7
1982,0.912,0.0,0.884,0.274,1.0,49.97,130.82,-27053.6,11507.28,4515.52,-141.6,414.02,-934.7
2002,0.865,0.0,1.0,0.274,1.0,50.09,130.82,-27085.6,11743.28,4563.52,524.4,633.02,-755.7
2022,0.96,0.007,0.82,0.274,1.0,50.18,130.79,-27117.6,11799.28,4503.52,327.4,562.02,-647.7
2042,0.96,0.0,0.177,0.268,1.0,50.27,130.69,-27109.6,11519.28,4607.52,-140.6,278.02,-751.7
2062,0.96,0.0,0.884,0.256,1.0,50.37,130.66,-27261.6,11303.28,4327.52,-367.6,90.02,-801.7
2082,1.0,0.0,0.884,0.28,1.0,50.4,130.65,-26749.6,11467.28,4159.52,-326.6,216.02,-603.7
2102,0.912,0.0,0.884,0.243,0.835,50.48,130.6,-26977.6,11503.28,4211.52,-399.6,397.02,-473.7
2122,0.912,0.0,0.563,0.256,1.0,50.6,130.55,-27433.6,11235.28,4363.52,-254.6,51.02,-51.7
2142,1.0,0.0,0.82,0.218,1.0,50.61,130.46,-27097.6,11547.28,4379.52,-145.6,-219.98,136.3
2162,1.0,0.0,0.563,0.249,0.505,50.68,130.28,-27201.6,11587.28,4487.52,-463.6,113.02,-235.7
2182,0.865,0.0,0.949,0.256,1.0,50.76,130.06,-27353.6,11715.28,4543.52,-438.6,170.02,-188.7
2202,0.817,0.215,0.048,0.212,1.0,50.79,129.9,-27301.6,11919.28,4403.52,-155.6,127.02,-137.7
2222,0.912,0.0,0.241,0.262,1.0,50.83,129.7,-27433.6,12075.28,4459.52,-134.6,127.02,-209.7
2242,0.865,0.0,0.82,0.243,1.0,50.82,129.52,-27209.6,11859.28,4399.52,-249.6,-164.98,-367.7
2261,0.912,0.0,0.627,0.237,1.0,50.86,129.3,-27097.6,11843.28,4343.52,-470.6,139.02,-845.7
2281,0.865,0.0,0.884,0.243,1.0,50.93,129.09,-27409.6,11759.28,4351.52,-607.6,67.02,-1015.7
2301,0.817,0.0,0.627,0.287,0.967,51.01,129.01,-27293.6,11531.28,4263.52,-125.6,112.02,-448.7
2321,0.722,0.0,1.0,0.243,1.0,51.16,128.92,-27417.6,11423.28,4359.52,-86.6,293.02,-46.7
2341,0.817,0.0,0.82,0.274,1.0,51.27,128.81,-27369.6,11543.28,4343.52,-35.6,228.02,79.3
2361,0.77,0.0,0.305,0.231,1.0,51.34,128.62,-27349.6,11811.28,4375.52,-219.6,196.02,-23.7
2381,0.627,0.0,0.884,0.237,0.967,51.4,128.35,-27537.6,11931.28,4527.52,-395.6,50.02,-193.7
2401,0.817,0.0,0.884,0.212,1.0,51.43,128.14,-27133.6,11883.28,4383.52,-272.6,136.02,-386.7
2421,0.817,0.0,0.82,0.237,1.0,51.58,127.94,-27533.6,11691.28,4451.52,-300.6,467.02,-569.7
2441,0.912,0.0,0.563,0.237,1.0,51.61,127.77,-27585.6,12047.28,4119.52,-332.6,72.02,-376.7
2461,0.817,0.007,0.82,0.243,0.967,51.62,127.64,-26965.6,11611.28,4087.52,-565.6,-10.98,-742.7
2480,0.817,0.007,0.82,0.243,1.0,51.7,127.52,-27189.6,11731.28,4155.52,11.4,288.02,-448.7
2500,0.865,0.0,0.884,0.262,1.0,51.77,127.47,-27325.6,11847.28,4203.52,519.4,296.02,-73.7
2520,0.912,0.0,0.884,0.249,0.967,51.86,127.37,-27413.6,11783.28,4191.52,108.4,358.02,-557.7
2540,1.0,0.0,0.949,0.256,0.967,52.0,127.28,-27605.6,11455.28,4263.52,74.4,211.02,-435.7
2560,0.96,0.0,1.0,0.243,1.0,52.04,127.15,-27269.6,11691.28,4315.52,179.4,-38.98,-480.7
2580,0.912,0.007,0.756,0.262,0.901,52.16,127.02,-27081.6,11379.28,4263.52,-243.6,387.02,-810.7
2599,0.96,0.0,1.0,0.249,1.0,52.38,126.78,-27585.6,11567.28,4611.52,-8.6,783.02,-464.7
2620,1.0,0.0,0.563,0.249,1.0,52.55,126.69,-27893.6,11103.28,4447.52,188.4,-107.98,35.3
2640,0.865,0.0,0.177,0.249,1.0,52.56,126.59,-26857.6,11615.28,4103.52,-41.6,105.02,-287.7
2660,0.865,0.0,0.498,0.262,0.967,52.68,126.42,-27233.6,11375.28,4299.52,-331.6,365.02,-610.7
2680,0.865,0.0,0.884,0.249,1.0,52.79,126.3,-27325.6,11171.28,4207.52,-357.6,31.02,-533.7
2700,0.865,0.0,0.82,0.218,1.0,52.86,126.1,-27197.6,11399.28,4347.52,-450.6,65.02,-630.7
2720,0.817,0.0,1.0,0.249,1.0,52.93,125.95,-27065.6,11611.28,4087.52,-372.6,382.02,-424.7
2740,0.912,0.0,0.884,0.249,0.967,53.09,125.75,-27521.6,11499.28,4331.52,-337.6,582.02,-333.7
2760,0.865,0.0,1.0,0.268,1.0,53.2,125.47,-27689.6,11695.28,4427.52,-486.6,219.02,-534.7
2780,0.865,0.0,0.627,0.274,1.0,53.25,125.25,-27409.6,11387.28,4291.52,-706.6,-171.98,-697.7
2799,0.865,0.0,0.884,0.231,0.967,53.26,125.06,-27089.6,11627.28,4251.52,-241.6,-19.98,-414.7
2818,0.912,0.0,0.691,0.268,1.0,53.4,124.84,-27441.6,11483.28,4535.52,-70.6,374.02,-344.7
2838,1.0,0.0,0.627,0.28,1.0,53.48,124.71,-27601.6,11775.28,4343.52,342.4,241.02,62.3
2858,0.865,0.0,0.756,0.268,1.0,53.49,124.57,-27465.6,11675.28,4203.52,-44.6,-203.98,-231.7
2877,0.912,0.0,0.756,0.268,1.0,53.5,124.41,-27097.6,11407.28,4151.52,-477.6,-174.98,-633.7
2896,1.0,0.0,0.884,0.274,1.0,53.6,124.21,-27585.6,11559.28,4379.52,-167.6,102.02,-454.7
2916,1.0,0.0,1.0,0.249,1.0,53.7,124.09,-27713.6,11375.28,4363.52,78.4,-17.98,-68.7
2936,1.0,0.0,0.949,0.268,1.0,53.74,123.96,-27609.6,11583.28,4291.52,18.4,-212.98,318.3
2956,1.0,0.0,0.884,0.268,0.967,53.78,123.81,-27221.6,11299.28,4207.52,-454.6,-140.98,39.3
2976,1.0,0.0,1.0,0.249,1.0,53.91,123.59,-27577.6,11499.28,4475.52,-260.6,312.02,-249.7
2996,1.0,0.0,0.82,0.262,0.901,53.95,123.41,-27529.6,11699.28,4215.52,-362.6,-8.98,-38.7
