timestamp,flex_1,flex_2,flex_3,flex_4,flex_5,kalman_pitch,kalman_roll,acc_x,acc_y,acc_z,gyro_x,gyro_y,gyro_z
0,1.0,0.179,0.0,0.852,0.268,78.82,-97.61,-1031.92,982.08,19394.32,1603.1,3095.62,-341.4
19,1.0,0.226,0.0,0.221,0.0,45.03,-79.14,-1911.92,1466.08,19690.32,1468.1,5012.62,-735.4
39,1.0,0.151,0.529,0.192,1.0,26.39,-68.83,-2231.92,582.08,20886.32,-1213.9,4260.62,-886.4
59,1.0,0.165,0.0,0.412,0.523,13.94,-62.84,-1463.92,-461.92,20754.32,-1416.9,3506.62,-610.4
79,1.0,0.0,0.0,0.0,0.0,5.35,-58.33,-1843.92,-897.92,21406.32,420.1,2374.62,201.6
99,1.0,0.124,0.018,0.221,0.477,-1.4,-54.01,-2111.92,362.08,21378.32,2886.1,1034.62,1043.6
119,1.0,0.042,0.075,0.163,0.709,-6.66,-50.75,-2691.92,178.08,20998.32,2904.1,572.62,2247.6
139,1.0,0.0,0.501,0.269,0.314,-10.89,-48.36,-2079.92,282.08,21842.32,-1107.9,1246.62,733.6
160,1.0,0.144,0.529,0.307,0.0,-13.91,-47.54,-2439.92,-965.92,22182.32,-7081.9,2984.62,-1494.4
180,1.0,0.425,0.0,0.144,0.57,-15.66,-47.97,-3523.92,-3141.92,23810.32,-12907.9,4043.62,-3548.4
200,0.94,0.24,1.0,0.747,0.941,-16.98,-49.05,-4103.92,-3785.92,23854.32,-16430.9,4145.62,-4900.4
220,0.788,0.185,0.0,0.594,0.825,-18.55,-50.32,-3955.92,-3077.92,23586.32,-18871.9,2008.62,-4253.4
240,0.668,0.0,0.0,0.02,0.0,-20.81,-52.85,-2031.92,-4641.92,21614.32,-23459.9,-1014.38,-2811.4
260,0.719,0.151,0.0,0.25,0.616,-23.03,-55.83,-1583.92,-4313.92,21286.32,-27885.9,-1192.38,-947.4
280,0.592,0.103,0.501,0.25,0.361,-24.95,-59.11,-2011.92,-5345.92,21030.32,-29846.9,-1520.38,2865.6
300,0.56,0.179,0.16,0.125,0.0,-26.7,-62.74,-2175.92,-6565.92,19526.32,-30494.9,-1597.38,6859.6
320,0.67,0.555,0.444,0.297,0.0,-28.03,-67.18,-1919.92,-9221.92,16650.32,-31896.9,-45.38,10856.6
340,0.761,0.0,0.359,0.135,0.152,-28.94,-71.83,-1203.92,-10953.92,14914.32,-32317.9,2332.62,13610.6
360,0.636,0.439,0.0,0.011,0.338,-29.26,-76.34,-1743.92,-12945.92,14538.32,-32317.9,4468.62,15258.6
380,0.832,0.336,0.0,0.355,0.314,-29.48,-80.24,-2007.92,-13213.92,13654.32,-28962.9,4685.62,18372.6
400,0.668,0.138,0.784,0.039,0.0,-29.73,-83.55,-2635.92,-13033.92,12798.32,-25594.9,3989.62,21379.6
420,0.7,0.274,0.784,0.594,0.0,-30.17,-86.54,-2847.92,-12341.92,11254.32,-23006.9,2771.62,23087.6
440,0.825,0.213,0.0,0.288,0.198,-30.79,-89.32,-2767.92,-11429.92,10310.32,-21691.9,1888.62,24026.6
460,0.639,0.281,0.529,0.469,0.0,-31.33,-92.06,-3819.92,-10909.92,9626.32,-21655.9,1470.62,24207.6
480,0.742,0.391,0.018,0.068,0.894,-31.8,-94.74,-4467.92,-10489.92,9162.32,-21788.9,1245.62,24228.6
500,0.751,0.336,0.217,0.211,0.0,-32.25,-97.33,-5015.92,-10769.92,8678.32,-21609.9,446.62,24163.6
520,0.776,0.391,0.898,0.661,0.0,-32.74,-99.8,-5691.92,-10113.92,7806.32,-20676.9,-475.38,23570.6
540,0.592,0.281,0.0,0.393,0.686,-33.3,-102.04,-6163.92,-8969.92,7286.32,-19225.9,-1298.38,22854.6
560,0.545,0.418,0.018,0.288,0.0,-33.87,-104.0,-6779.92,-8205.92,6790.32,-17301.9,-1956.38,22734.6
580,0.555,0.11,1.0,0.288,0.0,-34.44,-105.42,-7667.92,-7721.92,6914.32,-14372.9,-3100.38,21849.6
600,0.555,0.076,0.0,0.039,0.0,-35.22,-106.62,-7147.92,-7297.92,5498.32,-11291.9,-4216.38,20854.6
620,0.526,0.158,0.217,0.393,0.0,-36.0,-107.67,-6459.92,-7181.92,4566.32,-9455.9,-3804.38,19201.6
640,0.616,0.268,0.0,0.508,0.0,-36.61,-108.86,-6043.92,-7237.92,3586.32,-9509.9,-2818.38,17333.6
660,0.852,0.035,0.0,1.0,0.616,-37.19,-110.56,-5375.92,-8421.92,2338.32,-12655.9,-2914.38,16280.6
680,0.548,0.315,0.0,0.402,0.964,-37.95,-112.77,-4895.92,-11021.92,1266.32,-16928.9,-5194.38,15761.6
700,0.658,0.835,1.0,0.144,0.523,-39.13,-115.26,-4431.92,-11545.92,-165.68,-18632.9,-8510.38,16499.6
720,0.58,0.5,0.0,0.9,0.0,-41.04,-117.77,-3551.92,-9013.92,-1041.68,-17514.9,-12671.38,17931.6
740,0.732,0.548,0.0,0.23,0.152,-43.57,-121.0,-3575.92,-6825.92,-3705.68,-19585.9,-17800.38,18731.6
760,0.862,0.37,0.0,0.718,0.0,-46.26,-125.38,-5095.92,-5173.92,-4225.68,-26976.9,-21046.38,16269.6
780,0.781,0.466,0.0,0.431,0.0,-48.19,-130.37,-14055.92,-785.92,-113.68,-32000.9,-27186.38,14824.6
800,0.788,0.555,0.983,0.469,0.0,-48.27,-133.99,-21431.92,2262.08,5150.32,-27422.9,-32837.38,19731.6
820,0.692,0.404,0.0,0.087,0.0,-47.58,-134.39,-25119.92,1878.08,8470.32,-17177.9,-33858.38,29155.6
840,0.673,0.315,0.189,0.489,0.0,-47.84,-132.26,-22019.92,-1109.92,11366.32,-8967.9,-33858.38,31545.6
860,0.67,0.788,0.0,0.594,0.268,-48.48,-124.61,-19175.92,7530.08,18122.32,-559.9,-33858.38,26480.6
880,0.592,0.671,0.047,0.651,0.082,-47.8,-112.84,-24303.92,19274.08,22870.32,13920.1,-24257.38,16738.6
900,0.616,0.514,0.0,0.871,0.0,-45.12,-102.72,-24503.92,20538.08,23322.32,5024.1,-10330.38,10676.6
920,0.58,0.726,0.0,0.9,0.0,-40.93,-97.09,-28651.92,13490.08,25986.32,-14464.9,-3593.38,5056.6
940,0.565,0.883,0.0,0.89,0.43,-36.12,-91.37,-29511.92,9162.08,25926.32,-7142.9,432.62,1109.6
960,0.513,0.986,0.16,0.967,0.0,-30.56,-81.56,-27187.92,11418.08,18794.32,15909.1,3068.62,-2413.4
980,0.599,1.0,0.0,0.68,0.291,-23.94,-69.2,-24979.92,12298.08,12250.32,21472.1,7864.62,-7677.4
1000,0.501,0.993,0.0,0.46,0.059,-16.02,-55.34,-24359.92,8854.08,8870.32,11722.1,12665.62,-13599.4
1020,0.535,0.528,0.245,0.938,0.291,-8.37,-57.14,-25851.92,3998.08,7302.32,1711.1,17010.62,-17367.4
1040,0.57,0.678,0.0,0.441,0.964,-1.27,-58.02,-29347.92,574.08,8654.32,-1774.9,17239.62,-16878.4
1060,0.624,0.911,0.0,0.412,0.0,4.62,-58.92,-29535.92,-1737.92,6106.32,2664.1,13876.62,-12710.4
1080,0.513,0.254,0.274,0.0,0.0,9.15,-59.89,-25031.92,-3041.92,1518.32,8293.1,12810.62,-11720.4
1099,0.594,0.671,0.018,0.747,0.0,14.16,-61.3,-26087.92,-449.92,2.32,10170.1,15958.62,-14256.4
1120,0.685,0.719,0.0,0.412,1.0,19.05,-62.89,-27879.92,-1805.92,1502.32,5564.1,15287.62,-13036.4
1140,0.592,0.274,0.0,0.603,0.222,22.87,-64.53,-27235.92,-3697.92,2034.32,2567.1,10889.62,-8939.4
1160,0.506,0.076,0.217,0.336,0.987,26.02,-65.81,-21767.92,-3449.92,174.32,7259.1,13228.62,-7471.4
1180,0.442,0.377,0.0,0.163,0.0,29.44,-67.28,-19267.92,-2361.92,-1913.68,9118.1,19541.62,-10896.4
1200,0.482,0.103,0.0,0.402,0.616,33.32,-69.67,-23499.92,-4097.92,-137.68,-722.9,19454.62,-13747.4
1220,0.496,0.281,0.047,0.144,0.245,35.32,-72.05,-22291.92,-8005.92,2398.32,-6640.9,10145.62,-8571.4
1240,0.555,0.281,0.0,0.393,0.0,36.24,-73.52,-16955.92,-7917.92,-2677.68,4041.1,9768.62,-2691.4
1260,0.479,0.281,0.075,0.46,0.0,37.53,-74.04,-11951.92,-5497.92,-4133.68,13391.1,18181.62,-4191.4
1280,0.447,0.281,0.0,0.297,1.0,39.67,-75.32,-14531.92,-5849.92,-4353.68,8221.1,22005.62,-9635.4
1300,0.457,0.329,0.0,0.288,0.0,40.19,-78.35,-15119.92,-10901.92,-2073.68,-8933.9,11400.62,-8306.4
1320,0.418,0.356,0.0,0.211,0.129,39.36,-81.65,-11299.92,-11365.92,-5889.68,-9186.9,5987.62,-1573.4
1340,0.435,0.432,0.0,0.288,0.454,38.38,-83.36,-10267.92,-10329.92,-5561.68,1347.1,5827.62,1993.6
1360,0.477,0.315,0.699,0.221,0.0,37.36,-84.58,-12311.92,-9033.92,-5277.68,5047.1,3840.62,3440.6
1380,0.482,0.281,0.274,0.163,0.338,35.31,-87.19,-13603.92,-7141.92,-5277.68,-3462.9,-4654.38,3649.6
1400,0.499,0.22,0.075,0.278,0.0,32.81,-90.45,-14799.92,-6913.92,-4717.68,-8863.9,-9510.38,3604.6
1420,0.474,0.226,0.132,0.613,0.0,30.15,-93.34,-16839.92,-6977.92,-4341.68,-7432.9,-13423.38,4906.6
1440,0.531,0.445,0.0,0.336,0.0,27.48,-95.88,-17951.92,-5605.92,-4093.68,-5019.9,-15721.38,7052.6
1460,0.45,0.281,0.898,0.269,0.964,24.82,-98.61,-18563.92,-4313.92,-3717.68,-6189.9,-17419.38,7574.6
1480,0.513,0.37,0.416,1.0,0.639,22.68,-102.11,-19823.92,-2245.92,-4377.68,-9769.9,-16380.38,8256.6
1500,0.717,0.356,0.0,0.9,0.0,21.29,-106.4,-23351.92,14.08,-3437.68,-14504.9,-16488.38,5880.6
1520,0.683,0.493,0.0,0.125,0.0,20.04,-110.83,-24491.92,-1869.92,-2865.68,-19197.9,-16760.38,8044.6
1540,0.553,1.0,0.0,0.0,0.106,19.32,-114.38,-25063.92,-3653.92,-1105.68,-17786.9,-14265.38,12739.6
1560,0.813,0.425,0.075,0.575,0.0,18.39,-116.66,-22987.92,-2777.92,1434.32,-12051.9,-15706.38,13753.6
1580,0.538,0.644,0.018,0.986,0.0,17.31,-118.28,-19079.92,1270.08,3162.32,-5480.9,-15937.38,9067.6
1600,0.518,0.808,0.87,0.756,0.0,18.81,-120.33,-26511.92,5634.08,5298.32,-1553.9,-11823.38,8752.6
1620,0.499,0.924,0.416,1.0,0.0,21.29,-122.42,-27735.92,6666.08,7850.32,-2707.9,-9029.38,6861.6
1640,0.526,0.658,0.047,0.833,0.523,23.81,-120.49,-29123.92,5458.08,10238.32,-2848.9,-8641.38,5172.6
1660,0.526,0.726,0.529,0.957,0.0,26.01,-116.8,-31403.92,4386.08,12202.32,440.1,-8611.38,5276.6
1680,0.45,0.76,0.0,0.794,0.338,28.16,-112.42,-30359.92,4410.08,11642.32,8594.1,-8609.38,6288.6
1700,0.474,0.644,0.0,1.0,0.616,31.03,-111.55,-28495.92,7286.08,9482.32,15843.1,-6860.38,5533.6
1720,0.457,0.842,0.671,1.0,0.0,33.97,-97.12,-28359.92,9634.08,8270.32,13877.1,-2770.38,1932.6
1739,0.474,0.363,1.0,0.756,1.0,37.17,-82.37,-28231.92,7794.08,6994.32,2946.1,112.62,-1537.4
1760,0.428,0.904,1.0,1.0,0.0,39.95,-85.29,-27411.92,3826.08,5742.32,-5572.9,1773.62,-3725.4
1780,0.565,0.801,0.983,1.0,0.709,42.32,-87.39,-26819.92,1242.08,4694.32,-3646.9,3130.62,-3680.4
1799,0.518,0.815,0.047,0.861,0.454,44.58,-89.1,-27255.92,1402.08,2874.32,1887.1,3998.62,-3151.4
1819,0.513,0.466,0.217,1.0,0.0,46.54,-91.27,-26467.92,1838.08,1610.32,687.1,3892.62,-3264.4
1840,0.467,0.863,0.501,0.967,0.0,48.24,-94.17,-26139.92,1598.08,1214.32,-4674.9,3444.62,-3389.4
1859,0.555,0.719,0.0,1.0,0.732,49.71,-96.8,-26055.92,62.08,1434.32,-6068.9,3226.62,-3088.4
1879,0.636,0.664,1.0,0.393,0.222,51.04,-98.78,-25863.92,-17.92,1690.32,-2612.9,2763.62,-2337.4
1899,0.486,0.63,0.0,0.412,1.0,52.37,-100.33,-25891.92,726.08,962.32,1758.1,3314.62,-2281.4
1919,0.749,0.815,0.0,1.0,0.082,53.73,-101.79,-25735.92,458.08,714.32,1953.1,4445.62,-3482.4
1939,0.381,0.979,0.0,0.842,0.454,55.32,-103.39,-26183.92,1402.08,2282.32,284.1,4531.62,-4364.4
1959,0.435,1.0,0.104,0.565,0.709,56.4,-104.63,-26863.92,274.08,2062.32,1113.1,1939.62,-2288.4
1979,0.447,0.404,0.075,0.603,0.964,56.9,-105.8,-25667.92,-181.92,1506.32,1410.1,-199.38,-968.4
1999,0.506,0.835,0.0,0.402,0.0,57.46,-106.87,-25875.92,-237.92,1590.32,1700.1,313.62,-1008.4
2021,0.614,0.63,0.614,1.0,0.0,58.17,-108.03,-26243.92,-317.92,1574.32,808.1,1425.62,-1323.4
2039,0.81,0.637,0.0,0.402,0.152,59.04,-109.39,-26411.92,506.08,2166.32,-461.9,1745.62,-1493.4
2059,0.28,0.644,0.0,0.814,0.268,59.65,-110.72,-26743.92,-29.92,1942.32,-974.9,528.62,-291.4
2079,0.589,0.384,0.0,0.613,0.0,59.96,-112.01,-26255.92,-173.92,1682.32,-869.9,-624.38,660.6
2099,0.575,1.0,0.075,0.0,0.709,60.26,-113.15,-26031.92,254.08,1618.32,544.1,-590.38,1097.6
2119,0.565,0.486,0.671,1.0,0.0,60.7,-114.27,-26051.92,966.08,1822.32,1110.1,-6.38,730.6
2139,0.761,0.979,0.0,0.699,1.0,61.25,-115.43,-26131.92,1526.08,2254.32,984.1,213.62,338.6
2159,0.516,1.0,0.0,1.0,0.964,61.69,-116.61,-25711.92,1726.08,2094.32,1094.1,61.62,76.6
2179,0.513,0.637,0.529,0.794,0.338,62.08,-117.95,-25683.92,1870.08,1578.32,571.1,200.62,-25.4
2199,0.548,0.5,1.0,0.747,0.964,62.45,-119.3,-25563.92,1318.08,1538.32,-586.9,716.62,-509.4
2219,0.526,0.658,0.33,0.584,0.0,62.86,-120.51,-25931.92,718.08,1658.32,-952.9,1181.62,-1043.4
2239,0.773,0.616,0.0,1.0,0.384,63.27,-121.53,-26175.92,466.08,1818.32,-458.9,1229.62,-1104.4
2259,0.528,0.822,1.0,0.699,1.0,63.53,-122.42,-25851.92,606.08,1854.32,276.1,511.62,-670.4
2279,0.592,0.856,0.0,1.0,0.802,63.66,-123.2,-25687.92,638.08,1706.32,1124.1,43.62,-39.4
2299,0.467,0.699,1.0,1.0,0.013,63.76,-124.09,-25419.92,842.08,1594.32,578.1,146.62,-189.4
2319,0.548,0.165,0.0,0.842,0.0,63.99,-124.98,-25779.92,626.08,1970.32,-352.9,694.62,-533.4
2339,0.599,0.247,1.0,1.0,0.686,64.27,-125.78,-25707.92,686.08,2074.32,-32.9,1222.62,-788.4
2359,0.614,0.904,0.0,1.0,1.0,64.63,-126.46,-25163.92,910.08,1810.32,1288.1,2378.62,-1236.4
2379,0.641,1.0,0.557,1.0,0.0,65.26,-127.05,-24979.92,1322.08,1782.32,2356.1,4394.62,-1931.4
2399,0.661,0.322,1.0,0.747,1.0,66.22,-127.69,-25131.92,1226.08,1766.32,1760.1,6870.62,-2418.4
2419,0.724,0.76,0.387,0.106,0.546,67.31,-128.54,-26075.92,794.08,2082.32,-754.9,7568.62,-3615.4
2439,0.428,0.911,0.529,1.0,0.0,68.03,-129.5,-26347.92,246.08,2070.32,-2501.9,5591.62,-3560.4
2460,0.756,0.685,0.0,0.995,0.0,68.1,-130.18,-25879.92,-853.92,1242.32,-1256.9,2911.62,-2121.4
2479,0.746,0.158,0.0,1.0,0.0,67.8,-130.57,-24939.92,-573.92,338.32,1853.1,1728.62,-541.4
2499,0.766,1.0,0.104,0.976,0.848,67.46,-130.92,-24855.92,-181.92,-285.68,3067.1,1698.62,247.6
2519,0.621,0.295,0.0,0.842,1.0,67.16,-131.69,-25011.92,-1.92,-293.68,404.1,1803.62,-217.4
2539,0.658,1.0,0.075,0.919,1.0,66.86,-132.71,-25075.92,-61.92,106.32,-1929.9,1559.62,-725.4
2559,0.668,0.815,0.0,0.489,0.0,66.45,-133.6,-25027.92,-401.92,206.32,-1904.9,996.62,-618.4
2579,0.928,1.0,1.0,0.699,1.0,65.88,-134.23,-24703.92,-245.92,454.32,-397.9,-75.38,277.6
2599,0.97,0.63,0.0,0.508,0.0,65.22,-134.63,-24671.92,-153.92,386.32,1208.1,-729.38,1066.6
2619,0.621,0.685,0.0,0.9,0.0,64.55,-135.07,-24467.92,270.08,518.32,1192.1,-943.38,1058.6
2639,0.641,1.0,0.955,0.718,0.0,63.98,-135.64,-24547.92,306.08,454.32,397.1,-445.38,522.6
2659,0.639,0.876,0.0,0.728,0.0,63.62,-136.24,-24823.92,366.08,922.32,-460.9,338.62,-329.4
2679,0.509,0.863,0.387,0.622,0.361,63.28,-136.78,-24871.92,414.08,1118.32,-342.9,277.62,-565.4
2699,0.864,0.445,0.955,0.0,0.0,62.8,-137.18,-24579.92,70.08,818.32,378.1,-60.38,-203.4
2719,0.425,0.664,0.87,1.0,0.036,62.32,-137.55,-24387.92,-21.92,762.32,373.1,115.62,-432.4
2739,0.592,1.0,1.0,0.0,0.175,61.89,-137.94,-24475.92,-169.92,858.32,-161.9,377.62,-965.4
2759,0.974,0.712,0.728,1.0,0.268,61.5,-138.32,-24759.92,-217.92,986.32,-367.9,307.62,-1123.4
2779,0.722,0.09,1.0,0.613,0.0,61.1,-138.57,-24499.92,-5.92,1054.32,543.1,326.62,-865.4
2799,0.646,0.589,1.0,0.46,0.268,60.72,-138.76,-24455.92,122.08,802.32,1322.1,479.62,-587.4
2819,0.719,0.151,0.0,0.699,1.0,60.41,-139.04,-24519.92,262.08,654.32,998.1,946.62,-1000.4
2839,0.558,1.0,0.0,1.0,0.0,60.21,-139.46,-24811.92,330.08,662.32,58.1,1407.62,-1467.4
2859,0.673,1.0,0.0,0.0,0.338,60.02,-139.92,-24783.92,-9.92,606.32,-727.9,1752.62,-1738.4
2879,0.398,0.733,1.0,0.508,0.152,59.84,-140.33,-25279.92,-365.92,526.32,-915.9,1676.62,-1550.4
2899,0.656,0.808,0.075,1.0,0.152,59.56,-140.59,-25119.92,-205.92,618.32,92.1,1015.62,-776.4
2919,0.597,0.842,0.0,1.0,0.082,59.14,-140.73,-24819.92,-265.92,194.32,1152.1,574.62,25.6
2939,0.555,0.719,0.0,1.0,1.0,58.8,-140.93,-24863.92,198.08,50.32,1431.1,858.62,201.6
2959,0.656,0.24,0.0,1.0,0.802,58.52,-141.21,-24931.92,346.08,142.32,875.1,1110.62,79.6
2979,0.715,0.692,1.0,0.9,0.0,58.26,-141.48,-24667.92,242.08,286.32,634.1,1456.62,-159.4
