timestamp,flex_1,flex_2,flex_3,flex_4,flex_5,kalman_pitch,kalman_roll,acc_x,acc_y,acc_z,gyro_x,gyro_y,gyro_z
0,0.254,0.0,0.0,0.0,0.0,1.18,87.89,140.48,-1247.2,15143.36,-909.5,-423.74,1266.0
19,0.497,0.0,0.0,0.0,0.0,-13.63,54.44,288.48,-1691.2,15475.36,-556.5,-408.74,548.0
39,0.348,0.0,0.0,0.0,0.082,-22.43,34.4,260.48,-2111.2,15027.36,760.5,-654.74,203.0
59,0.362,0.0,0.0,0.0,0.0,-28.25,21.41,156.48,-2091.2,15223.36,1464.5,-1099.74,127.0
79,0.359,0.0,0.55,0.0,0.328,-32.53,13.04,492.48,-1287.2,15855.36,1657.5,-1007.74,320.0
99,0.398,0.0,0.0,0.0,0.0,-35.82,6.36,508.48,-1803.2,15439.36,2657.5,-658.74,570.0
119,0.468,0.0,0.05,0.0,0.0,-38.21,1.14,656.48,-2007.2,16051.36,2096.5,-3.74,615.0
139,0.391,0.0,0.925,0.0,0.082,-39.87,-3.51,564.48,-2903.2,16235.36,1779.5,795.26,661.0
159,0.324,0.0,0.05,0.0,0.0,-41.04,-7.32,316.48,-2939.2,16315.36,2195.5,2001.26,225.0
179,0.819,0.0,0.425,0.0,0.0,-41.68,-10.14,92.48,-2751.2,17495.36,2645.5,2920.26,125.0
200,0.997,0.0,0.0,0.0,0.0,-42.13,-12.38,352.48,-2719.2,18107.36,3126.5,3304.26,-288.0
219,0.997,0.0,0.425,0.0,0.0,-42.35,-14.12,44.48,-2895.2,19367.36,3587.5,2782.26,-363.0
240,0.249,0.0,0.0,0.0,0.0,-42.54,-15.17,-247.52,-1579.2,19987.36,3807.5,2453.26,-1450.0
259,0.156,0.0,0.3,0.0,0.0,-42.77,-16.23,-771.52,-2751.2,20979.36,4443.5,48.26,-287.0
280,0.28,0.0,0.175,0.0,0.0,-43.29,-16.42,-107.52,-1867.2,22703.36,7229.5,-2324.74,-520.0
300,0.64,0.0,0.3,0.0,0.0,-44.18,-16.55,1892.48,-2919.2,22695.36,9086.5,-3390.74,-1639.0
320,0.753,0.0,0.425,0.0,0.0,-45.24,-16.8,2488.48,-1859.2,22887.36,6474.5,-4220.74,-2132.0
340,0.692,0.0,0.0,0.0,0.0,-45.93,-17.7,3772.48,-4167.2,23407.36,4662.5,-2063.74,-2275.0
360,0.616,0.0,0.0,0.0,0.0,-46.19,-17.92,3732.48,-7519.2,21651.36,14240.5,463.26,-2832.0
380,0.542,0.0,0.55,0.0,0.0,-45.99,-16.42,5428.48,-3607.2,20599.36,22075.5,7087.26,-2246.0
400,0.319,0.0,0.0,0.0,0.0,-45.27,-14.05,6184.48,-323.2,19051.36,24650.5,13534.26,-2152.0
420,0.215,0.013,0.425,0.0,0.082,-43.54,-11.61,5596.48,1604.8,20083.36,22290.5,20115.26,-3173.0
440,0.278,0.003,0.0,0.0,0.0,-41.0,-9.86,4840.48,2904.8,21259.36,16108.5,25095.26,-3925.0
460,0.37,0.0,0.0,0.0,0.0,-37.75,-8.53,3244.48,3728.8,22443.36,12456.5,29087.26,-3086.0
480,0.278,0.0,0.675,0.0,0.0,-34.26,-7.85,2208.48,3940.8,22351.36,8230.5,31435.26,-1787.0
499,0.274,0.0,0.05,0.0,0.0,-30.71,-8.26,340.48,2228.8,22723.36,3275.5,31435.26,-797.0
519,0.314,0.0,1.0,0.082,0.0,-27.17,-9.26,-1099.52,16.8,22439.36,2244.5,31435.26,502.0
540,0.209,0.0,0.0,0.0,0.164,-23.52,-9.97,-2907.52,-1015.2,22843.36,5009.5,31435.26,1627.0
560,0.383,0.0,0.0,0.275,0.0,-19.83,-10.01,-4943.52,-39.2,22527.36,8304.5,31435.26,2753.0
580,0.006,0.0,0.0,0.0,0.0,-16.25,-9.52,-5719.52,692.8,22243.36,11016.5,31435.26,3394.0
600,0.037,0.0,0.0,0.469,0.0,-12.7,-8.47,-7535.52,2992.8,20407.36,12141.5,31435.26,4412.0
620,0.0,0.0,0.675,0.517,0.0,-9.03,-7.44,-9311.52,3444.8,19707.36,11700.5,31435.26,4868.0
640,0.0,0.0,0.55,0.517,0.0,-5.06,-6.48,-11547.52,3960.8,18587.36,10670.5,31435.26,5196.0
660,0.0,0.0,0.0,0.42,0.0,-0.57,-5.45,-14319.52,5032.8,18007.36,9386.5,31435.26,5349.0
680,0.0,0.0,0.425,0.517,0.0,4.18,-4.51,-15891.52,4732.8,17003.36,9483.5,31435.26,5731.0
700,0.0,0.0,0.55,0.565,0.082,9.32,-3.09,-17603.52,5748.8,15411.36,10408.5,31435.26,6255.0
720,0.054,0.0,0.0,0.0,0.0,14.54,-1.64,-18923.52,5620.8,15359.36,11258.5,31435.26,6882.0
740,0.029,0.003,0.425,0.179,0.0,20.03,0.47,-20563.52,6736.8,14091.36,12644.5,31435.26,7264.0
760,0.0,0.0,0.0,0.275,0.0,25.63,3.21,-21427.52,7852.8,12307.36,12378.5,31435.26,6973.0
780,0.0,0.0,0.55,0.614,0.0,31.18,5.69,-23215.52,8300.8,12279.36,10176.5,31435.26,6004.0
800,0.0,0.013,0.3,0.0,0.0,36.68,8.24,-23583.52,8656.8,10831.36,7383.5,31435.26,5359.0
820,0.0,0.0,0.425,0.0,0.0,41.71,10.73,-24527.52,9700.8,10827.36,5490.5,30509.26,5400.0
840,0.044,0.003,0.8,0.0,0.0,46.18,13.6,-24343.52,9956.8,9063.36,3380.5,27591.26,5640.0
860,0.0,0.0,0.0,0.0,0.0,50.34,17.46,-23703.52,9176.8,6447.36,1977.5,25686.26,5470.0
880,0.0,0.0,0.0,0.0,0.0,54.01,21.47,-23883.52,9452.8,6007.36,2207.5,24057.26,5710.0
900,0.0,0.046,0.0,0.0,0.0,57.36,25.46,-24271.52,9452.8,6315.36,4156.5,22817.26,5464.0
920,0.043,0.0,0.55,0.0,0.0,60.15,29.62,-24935.52,9512.8,6099.36,5519.5,19806.26,5223.0
940,0.079,0.013,0.0,0.0,0.0,62.19,34.32,-25211.52,10692.8,5239.36,7916.5,17227.26,5840.0
960,0.116,0.046,0.0,0.0,0.0,63.52,39.12,-23327.52,11848.8,4927.36,9678.5,16287.26,5710.0
980,0.02,0.0,0.05,0.0,0.0,64.74,43.8,-24111.52,11396.8,4007.36,7521.5,15077.26,4154.0
1000,0.01,0.024,0.3,0.0,0.0,65.55,47.69,-25355.52,12276.8,3823.36,3497.5,12842.26,3567.0
1019,0.089,0.003,0.425,0.0,0.0,65.5,51.19,-23971.52,12040.8,3803.36,1599.5,8168.26,3049.0
1040,0.099,0.013,0.0,0.0,0.0,65.15,55.05,-23687.52,11504.8,2683.36,1816.5,6435.26,2565.0
1060,0.075,0.003,0.0,0.0,0.0,64.56,58.79,-23675.52,12284.8,2643.36,2728.5,5559.26,1936.0
1080,0.027,0.0,0.05,0.0,0.0,63.91,62.63,-23783.52,11860.8,2591.36,3857.5,4481.26,1641.0
1100,0.075,0.0,0.55,1.0,0.0,63.03,66.29,-24383.52,12696.8,3019.36,5409.5,2884.26,1711.0
1119,0.053,0.013,0.0,1.0,0.082,62.0,69.89,-24435.52,12912.8,3131.36,6351.5,1751.26,1829.0
1140,0.105,0.057,0.0,0.0,0.082,60.81,73.49,-24147.52,13280.8,1979.36,5506.5,1427.26,1236.0
1159,0.0,0.0,0.0,1.0,0.0,59.7,76.85,-23947.52,12844.8,1443.36,3462.5,1662.26,280.0
1180,0.0,0.121,0.0,1.0,0.0,58.77,80.0,-24123.52,12108.8,1559.36,2338.5,1732.26,-243.0
1199,0.0,0.046,0.675,0.034,0.082,57.98,83.15,-23899.52,12296.8,943.36,2367.5,3120.26,-432.0
1220,0.0,0.0,0.425,0.13,0.0,57.55,86.29,-23923.52,11732.8,1019.36,2564.5,4837.26,-1277.0
1240,0.0,0.046,0.0,0.0,0.0,57.28,89.3,-24695.52,11720.8,1479.36,3401.5,4906.26,-1373.0
1260,0.0,0.046,1.0,0.0,0.082,56.88,92.18,-24991.52,11844.8,1847.36,4263.5,3548.26,-1393.0
1280,0.0,0.024,0.3,0.0,0.0,56.31,94.84,-25539.52,12452.8,1343.36,3375.5,2636.26,-1427.0
1300,0.0,0.024,0.0,0.0,0.0,55.54,97.26,-25255.52,11896.8,955.36,1137.5,1008.26,-1614.0
1319,0.0,0.0,0.675,1.0,0.0,54.61,99.55,-25303.52,11592.8,915.36,433.5,-552.74,-1035.0
1339,0.0,0.0,0.3,0.0,0.0,53.62,101.73,-25235.52,11940.8,607.36,297.5,-817.74,-1161.0
1360,0.0,0.013,0.3,0.0,0.0,52.61,103.85,-24935.52,11804.8,559.36,257.5,-1152.74,-952.0
1380,0.0,0.013,0.0,0.0,0.082,51.59,105.81,-24959.52,12180.8,835.36,653.5,-1402.74,-163.0
1400,0.0,0.013,0.175,0.0,0.246,50.65,107.63,-25475.52,12160.8,1099.36,750.5,-1785.74,426.0
1419,0.0,0.013,0.0,0.0,0.0,49.75,109.38,-25639.52,11896.8,1227.36,734.5,-2347.74,754.0
1440,0.0,0.003,0.05,0.0,0.164,48.83,110.91,-25331.52,12444.8,1279.36,500.5,-2122.74,389.0
1459,0.0,0.046,0.55,0.0,0.0,47.97,112.4,-25011.52,12236.8,951.36,-146.5,-1820.74,-40.0
1479,0.0,0.013,0.3,0.0,0.0,47.23,113.68,-25315.52,12284.8,1319.36,-443.5,-1682.74,-1.0
1500,0.0,0.046,0.05,0.0,0.0,46.55,114.84,-25419.52,12248.8,1511.36,-506.5,-1794.74,155.0
1520,0.0,0.057,0.0,0.0,0.0,45.94,116.04,-25411.52,11980.8,1351.36,-502.5,-1716.74,245.0
1540,0.0,0.003,0.3,0.0,0.164,45.43,117.14,-25515.52,12048.8,1379.36,-660.5,-1379.74,144.0
1560,0.0,0.003,0.05,0.0,0.0,45.03,118.11,-25619.52,12024.8,1303.36,-1376.5,-887.74,-67.0
1580,0.0,0.013,0.0,0.0,0.0,44.76,118.94,-25831.52,11804.8,1355.36,-2137.5,-520.74,-334.0
1600,0.0,0.035,0.925,0.0,0.0,44.57,119.69,-25879.52,11660.8,1499.36,-2424.5,-412.74,-425.0
1620,0.0,0.003,0.05,0.0,0.0,44.37,120.34,-25695.52,11892.8,1775.36,-2010.5,-345.74,-218.0
1640,0.0,0.046,0.425,0.0,0.0,44.17,120.9,-25563.52,12192.8,1599.36,-2431.5,-129.74,-437.0
1660,0.0,0.024,0.05,0.0,0.0,44.04,121.37,-25903.52,12080.8,1575.36,-2985.5,-51.74,-661.0
1680,0.0,0.0,0.0,0.0,0.0,43.94,121.93,-25927.52,11748.8,1775.36,-2257.5,-309.74,-515.0
1699,0.0,0.003,0.0,0.0,0.0,43.86,122.48,-25775.52,12184.8,1999.36,-1227.5,43.26,-320.0
1719,0.0,0.003,0.3,0.0,0.0,43.79,122.99,-25867.52,12224.8,1907.36,-1366.5,33.26,-445.0
1740,0.0,0.013,0.0,0.0,0.0,43.74,123.43,-25935.52,12100.8,1987.36,-1671.5,-134.74,-476.0
1759,0.0,0.067,0.425,0.0,0.0,43.7,123.86,-25799.52,12020.8,1991.36,-1634.5,-78.74,-555.0
1779,0.0,0.0,0.05,0.0,0.0,43.75,124.35,-26083.52,11824.8,1979.36,-1236.5,65.26,-644.0
1799,0.0,0.003,0.0,0.0,0.0,43.78,124.85,-26211.52,12104.8,2195.36,-299.5,-62.74,-232.0
1819,0.0,0.0,0.05,0.0,0.0,43.77,125.38,-26003.52,12288.8,2091.36,98.5,-30.74,7.0
1839,0.0,0.046,0.3,0.0,0.0,43.78,125.86,-25863.52,12236.8,2023.36,-217.5,110.26,-16.0
1859,0.0,0.0,0.3,0.0,0.0,43.83,126.23,-25919.52,12188.8,2127.36,-536.5,249.26,-112.0
1879,0.0,0.003,0.05,0.0,0.0,43.95,126.6,-25779.52,12104.8,2119.36,-568.5,686.26,-184.0
1899,0.0,0.003,0.3,0.0,0.0,44.09,126.96,-25691.52,12220.8,2075.36,-321.5,972.26,-85.0
1919,0.0,0.024,0.0,0.0,0.0,44.25,127.4,-25711.52,12084.8,1887.36,-182.5,1073.26,30.0
1939,0.0,0.024,0.0,0.0,0.0,44.41,127.86,-25687.52,12092.8,1783.36,29.5,1150.26,-28.0
1959,0.0,0.0,0.425,0.0,0.0,44.59,128.45,-25827.52,11960.8,1371.36,287.5,1279.26,-166.0
1980,0.0,0.046,0.05,0.0,0.0,44.77,128.99,-25671.52,12072.8,1331.36,194.5,1490.26,-274.0
1999,0.0,0.0,0.05,0.0,0.0,44.94,129.58,-25755.52,11908.8,1223.36,386.5,1346.26,-308.0
2019,0.0,0.0,0.425,0.0,0.0,45.09,130.08,-25815.52,12084.8,1279.36,336.5,1272.26,-458.0
2039,0.0,0.0,0.0,0.0,0.0,45.22,130.6,-25799.52,11880.8,1139.36,182.5,1013.26,-459.0
2059,0.0,0.024,0.0,0.0,0.0,45.34,131.14,-25947.52,11712.8,879.36,-90.5,896.26,-577.0
2079,0.0,0.013,0.0,0.0,0.0,45.44,131.6,-25807.52,11612.8,1111.36,-140.5,670.26,-511.0
2100,0.0,0.046,0.55,0.0,0.0,45.55,132.04,-25843.52,11528.8,1127.36,-224.5,554.26,-387.0
2119,0.0,0.0,0.55,0.0,0.0,45.62,132.4,-25851.52,11668.8,1099.36,-405.5,436.26,-223.0
2139,0.0,0.046,0.675,0.0,0.0,45.7,132.72,-25803.52,11592.8,1367.36,-165.5,245.26,63.0
2159,0.0,0.0,0.0,0.0,0.0,45.76,133.05,-25715.52,11632.8,1415.36,239.5,179.26,345.0
2179,0.0,0.0,0.3,0.0,0.0,45.79,133.41,-25511.52,11660.8,1387.36,500.5,133.26,538.0
2199,0.0,0.0,0.425,0.0,0.0,45.82,133.7,-25459.52,11816.8,1475.36,599.5,224.26,464.0
2219,0.0,0.0,0.0,0.0,0.0,45.87,133.99,-25715.52,11800.8,1431.36,680.5,158.26,399.0
2239,0.0,0.067,0.3,0.0,0.0,45.86,134.23,-25707.52,12016.8,1391.36,615.5,-102.74,348.0
2259,0.0,0.046,0.55,0.0,0.0,45.85,134.44,-25711.52,11920.8,1207.36,189.5,-159.74,249.0
2279,0.0,0.0,0.425,0.0,0.0,45.84,134.61,-25703.52,11912.8,1247.36,44.5,-221.74,172.0
2299,0.0,0.0,0.0,0.0,0.0,45.82,134.74,-25631.52,11972.8,1279.36,104.5,-216.74,175.0
2319,0.0,0.024,0.0,0.0,0.0,45.81,134.84,-25579.52,12000.8,1519.36,352.5,-247.74,259.0
2339,0.0,0.067,0.175,0.0,0.0,45.78,134.94,-25375.52,12020.8,1355.36,269.5,-228.74,309.0
2359,0.0,0.024,0.0,0.0,0.0,45.78,134.99,-25371.52,11968.8,1395.36,9.5,-113.74,303.0
2379,0.0,0.1,0.175,0.0,0.0,45.8,135.07,-25307.52,11884.8,1243.36,-55.5,6.26,270.0
2399,0.0,0.0,0.425,0.0,0.0,45.83,135.12,-25327.52,11916.8,1319.36,25.5,86.26,274.0
2419,0.0,0.013,0.175,0.0,0.0,45.85,135.19,-25455.52,11916.8,1239.36,111.5,-109.74,287.0
2439,0.0,0.003,0.55,0.0,0.0,45.82,135.3,-25367.52,11980.8,1199.36,406.5,-342.74,373.0
2459,0.0,0.0,0.0,0.0,0.0,45.77,135.36,-25339.52,12140.8,1091.36,263.5,-368.74,179.0
2479,0.0,0.024,0.05,0.0,0.0,45.74,135.44,-25427.52,11948.8,1027.36,102.5,-414.74,-54.0
2499,0.0,0.0,0.675,0.0,0.0,45.7,135.48,-25523.52,12092.8,1215.36,437.5,-613.74,-52.0
2519,0.0,0.003,0.0,0.0,0.0,45.64,135.47,-25499.52,12180.8,1239.36,281.5,-714.74,-326.0
2539,0.0,0.003,0.0,0.0,0.0,45.6,135.41,-25507.52,12032.8,1283.36,-55.5,-766.74,-489.0
2559,0.0,0.024,0.05,0.0,0.0,45.59,135.3,-25563.52,11972.8,1427.36,-182.5,-792.74,-580.0
2580,0.0,0.013,0.3,0.0,0.0,45.64,135.22,-25751.52,11816.8,1415.36,-107.5,-750.74,-627.0
2599,0.02,0.003,0.0,0.0,0.0,45.69,135.14,-25787.52,11772.8,1631.36,221.5,-877.74,-453.0
2619,0.0,0.013,0.0,0.0,0.0,45.73,135.04,-25663.52,11904.8,1575.36,220.5,-740.74,-442.0
2639,0.0,0.024,0.425,0.0,0.0,45.83,134.94,-25883.52,11768.8,1507.36,-44.5,-671.74,-511.0
2659,0.0,0.0,0.0,0.0,0.0,45.92,134.84,-25839.52,11788.8,1515.36,79.5,-656.74,-465.0
2679,0.0,0.0,0.925,0.0,0.0,46.05,134.75,-25819.52,11800.8,1531.36,131.5,-424.74,-515.0
2700,0.0,0.1,0.0,0.0,0.0,46.19,134.62,-25871.52,11784.8,1431.36,-221.5,-291.74,-652.0
2720,0.0,0.046,0.0,0.0,0.0,46.38,134.4,-26047.52,11740.8,1511.36,-702.5,-188.74,-700.0
2740,0.0,0.003,0.0,0.0,0.0,46.57,134.21,-26019.52,11572.8,1535.36,-686.5,-345.74,-574.0
2760,0.0,0.0,0.675,0.0,0.0,46.73,134.03,-25875.52,11612.8,1483.36,-651.5,-333.74,-483.0
2779,0.0,0.1,0.3,0.0,0.0,46.9,133.82,-25991.52,11576.8,1695.36,-558.5,-457.74,-378.0
2800,0.0,0.0,0.0,0.0,0.0,47.06,133.63,-25871.52,11596.8,1715.36,-310.5,-514.74,-156.0
2820,0.0,0.089,0.175,0.0,0.574,47.19,133.41,-25803.52,11620.8,1863.36,-268.5,-632.74,-101.0
2839,0.0,0.003,0.55,0.0,0.0,47.31,133.17,-25599.52,11644.8,1899.36,-339.5,-663.74,-98.0
2860,0.0,0.013,0.0,0.0,0.0,47.43,132.89,-25623.52,11612.8,1927.36,-534.5,-644.74,-199.0
2880,0.0,0.0,0.0,0.0,0.0,47.56,132.57,-25619.52,11568.8,2151.36,-510.5,-728.74,-176.0
2900,0.0,0.0,0.05,0.0,0.0,47.65,132.26,-25479.52,11640.8,2139.36,-424.5,-890.74,-268.0
2920,0.01,0.0,0.55,0.0,0.0,47.71,131.9,-25279.52,11664.8,2239.36,-602.5,-1003.74,-357.0
2940,0.0,0.013,0.3,0.0,0.0,47.77,131.49,-25219.52,11612.8,2115.36,-1235.5,-950.74,-684.0
2960,0.0,0.003,0.05,0.0,0.0,47.83,130.94,-25307.52,11712.8,2231.36,-1966.5,-966.74,-907.0
2980,0.0,0.024,0.05,0.0,0.0,47.9,130.33,-25215.52,11576.8,2447.36,-2210.5,-1140.74,-931.0
