timestamp,flex_1,flex_2,flex_3,flex_4,flex_5,kalman_pitch,kalman_roll,acc_x,acc_y,acc_z,gyro_x,gyro_y,gyro_z
0,1.0,0.0,0.39,1.0,0.0,59.51,-130.73,805.68,3538.72,16257.6,-7123.0,-438.18,-3812.24
19,1.0,0.0,0.0,0.556,0.0,33.83,-104.3,1233.68,2834.72,16533.6,-5922.0,-288.18,-4153.24
39,1.0,0.0,0.0,0.302,0.0,15.94,-87.24,3477.68,3366.72,15029.6,-3238.0,707.82,-3944.24
59,1.0,0.0,0.0,0.398,0.0,4.88,-73.49,2897.68,5018.72,16817.6,-2345.0,4949.82,-4218.24
79,1.0,0.086,0.024,1.0,0.0,-1.63,-64.03,257.68,4630.72,18741.6,-6287.0,5525.82,-4067.24
99,1.0,0.0,0.049,0.885,0.0,-8.08,-57.98,2065.68,4082.72,17181.6,-11863.0,1963.82,-4645.24
119,1.0,0.003,0.0,0.495,0.0,-13.13,-54.93,2061.68,2466.72,17625.6,-17872.0,1033.82,-4775.24
139,1.0,0.0,0.122,0.803,0.404,-17.19,-54.84,1933.68,-329.28,17149.6,-24210.0,453.82,-5495.24
159,1.0,0.0,0.0,0.591,0.0,-19.37,-56.94,-1218.32,-4981.28,19185.6,-31049.0,-1741.18,-4692.24
179,0.881,0.0,1.0,0.577,0.0,-22.87,-59.86,2373.68,-5881.28,16813.6,-32313.0,-6535.18,-1782.24
199,0.428,0.123,0.0,0.68,0.0,-25.42,-61.2,-3542.32,-1265.28,17645.6,-32313.0,-9345.18,234.76
219,0.487,0.0,0.0,0.687,0.0,-28.4,-64.53,1745.68,-9205.28,16445.6,-32313.0,-10695.18,10610.76
240,0.647,0.0,0.0,1.0,1.0,-31.13,-68.3,2701.68,-13949.28,15733.6,-32313.0,-12523.18,16554.76
259,0.514,0.0,0.683,1.0,0.0,-34.12,-72.43,5509.68,-14765.28,11681.6,-30979.0,-12834.18,22364.76
279,0.546,0.0,0.878,1.0,0.0,-36.47,-75.64,6901.68,-15161.28,9989.6,-24274.0,-8714.18,26969.76
299,0.825,0.0,0.39,1.0,0.0,-37.84,-78.14,6457.68,-16657.28,10049.6,-20567.0,-4322.18,29534.76
319,0.701,0.0,0.0,0.371,0.0,-38.99,-80.16,6137.68,-15253.28,10945.6,-19847.0,-2955.18,32340.76
339,0.644,0.0,0.0,0.803,0.0,-39.86,-82.34,5461.68,-17501.28,11525.6,-21989.0,-3348.18,32960.76
359,0.872,0.154,1.0,0.597,0.0,-40.73,-85.2,6685.68,-17901.28,8845.6,-24754.0,-2753.18,32960.76
379,0.914,0.0,0.0,0.549,1.0,-40.94,-88.27,5133.68,-19621.28,9257.6,-27628.0,-470.18,32960.76
400,0.929,0.0,0.341,0.536,0.0,-41.24,-90.96,4577.68,-21105.28,8909.6,-25831.0,-2075.18,32960.76
419,0.852,0.0,0.0,0.447,1.0,-41.85,-93.08,5169.68,-20465.28,7105.6,-21400.0,-3719.18,32960.76
439,0.822,0.0,0.0,0.433,0.0,-42.41,-94.7,4925.68,-21073.28,6297.6,-18036.0,-3983.18,32960.76
459,0.784,0.0,0.049,0.447,0.0,-42.94,-95.8,4429.68,-19209.28,5581.6,-14442.0,-3549.18,32960.76
479,0.745,0.0,0.0,0.227,0.0,-43.18,-96.0,2981.68,-17953.28,6161.6,-9162.0,-2205.18,32960.76
499,0.653,0.229,0.0,0.543,0.0,-43.2,-95.23,877.68,-17477.28,7409.6,-3807.0,-2214.18,32960.76
519,0.784,0.0,0.0,0.447,0.0,-43.11,-93.66,-1166.32,-12505.28,8409.6,557.0,-984.18,32960.76
539,0.698,0.0,0.0,0.371,0.0,-42.97,-92.88,-2302.32,-11505.28,6493.6,-2095.0,-1118.18,32960.76
559,0.748,0.0,0.341,0.433,0.0,-42.61,-91.88,-3798.32,-12501.28,6781.6,-688.0,-1588.18,32960.76
579,0.656,0.0,0.293,0.57,0.0,-42.11,-88.73,-7078.32,-3929.28,8345.6,10506.0,-223.18,32960.76
600,0.736,0.0,0.0,0.296,0.0,-40.86,-85.65,-7890.32,-6225.28,6109.6,15997.0,2323.82,32960.76
619,0.683,0.0,0.415,0.707,0.0,-39.35,-83.06,-9862.32,-1869.28,6653.6,12232.0,2748.82,32960.76
639,0.73,0.0,0.268,0.364,0.0,-37.63,-81.17,-11838.32,30.72,6681.6,7688.0,-1301.18,32960.76
659,0.709,0.0,0.878,0.419,0.0,-36.18,-80.46,-11462.32,-729.28,4873.6,6397.0,-1269.18,32960.76
679,0.52,0.0,0.0,0.069,0.0,-32.35,-79.29,-14354.32,1766.72,5121.6,10953.0,2368.82,32960.76
700,0.73,0.0,0.0,0.645,1.0,-27.18,-78.38,-16358.32,2618.72,5049.6,11447.0,5007.82,32960.76
719,0.807,0.0,0.61,0.529,0.0,-21.95,-78.38,-17466.32,3306.72,3833.6,14656.0,4827.82,32960.76
739,0.831,0.0,0.317,0.549,0.0,-17.58,-79.35,-17338.32,3190.72,1861.6,14405.0,4314.82,32191.76
759,0.733,0.0,0.0,0.549,0.0,-12.63,-63.01,-18846.32,5998.72,2137.6,14303.0,5064.82,30077.76
779,0.781,0.0,0.0,0.563,0.0,-8.05,-49.63,-19898.32,9350.72,2045.6,12442.0,5463.82,28301.76
799,0.621,0.093,0.0,0.309,0.0,-4.29,-38.08,-19810.32,11150.72,1089.6,5413.0,4191.82,25629.76
819,0.632,0.244,0.366,0.447,0.0,-0.73,-27.16,-20126.32,10742.72,141.6,1429.0,4020.82,24694.76
839,0.706,0.003,1.0,0.549,0.0,2.45,-16.66,-19910.32,13070.72,-110.4,4962.0,4808.82,23617.76
859,0.689,0.048,0.195,0.563,0.0,5.01,-6.62,-18918.32,17586.72,-1354.4,7573.0,6347.82,21756.76
879,0.683,0.0,0.366,0.426,1.0,6.95,2.7,-16414.32,23218.72,-2526.4,7406.0,7964.82,17911.76
899,0.668,0.0,0.341,0.659,0.0,8.43,11.75,-13786.32,30926.72,-5870.4,8534.0,8838.82,12863.76
919,0.632,0.191,0.0,0.44,1.0,9.81,20.45,-13106.32,38218.72,-6902.4,9942.0,9517.82,2901.76
939,0.686,0.0,0.244,0.447,0.0,9.75,27.85,-14154.32,38561.72,-5386.4,4408.0,-566.18,-13595.24
959,0.623,0.0,0.0,0.714,0.0,7.57,34.22,-14446.32,35890.72,-2542.4,575.0,-15510.18,-30511.24
979,0.549,0.0,0.317,0.618,1.0,4.4,39.92,-19034.32,23982.72,3033.6,168.0,-29340.18,-32574.24
999,0.683,0.116,0.0,0.57,1.0,3.65,37.61,-22994.32,3978.72,7761.6,-448.0,-34051.18,-32574.24
1019,0.626,0.0,0.415,0.858,0.0,1.28,34.15,-30002.32,-11609.28,13253.6,-914.0,-34051.18,-32574.24
1039,0.496,0.0,0.732,0.508,0.0,-2.96,30.31,-14186.32,-19445.28,12325.6,-1033.0,-34051.18,-32574.24
1059,0.582,0.0,0.0,0.707,0.0,-4.58,26.77,-7638.32,-26973.28,17385.6,-1482.0,-13120.18,-32574.24
1079,0.579,0.0,0.171,0.515,0.0,-2.67,24.44,-21018.32,-26973.28,23229.6,3215.0,3196.82,-4677.24
1099,0.594,0.0,0.0,0.591,0.0,-0.72,22.26,-28290.32,-26973.28,18633.6,6472.0,-12.18,17876.76
1119,0.609,0.01,0.0,0.344,1.0,1.85,20.39,-24618.32,-17805.28,11041.6,11743.0,3733.82,21761.76
1139,0.582,0.0,0.0,0.268,0.0,6.1,16.59,-25970.32,-3929.28,9077.6,-3556.0,6571.82,20462.76
1159,0.689,0.0,0.0,0.447,0.0,11.29,11.75,-24538.32,-1193.28,7805.6,-10385.0,11944.82,18803.76
1179,0.701,0.0,0.0,0.447,0.0,17.68,9.42,-26522.32,4058.72,8241.6,-7702.0,15251.82,22280.76
1199,0.674,0.0,0.341,0.378,0.28,23.61,5.67,-25410.32,2782.72,6749.6,-4138.0,14542.82,26137.76
1219,0.706,0.0,0.0,0.543,0.0,29.49,16.4,-24114.32,5870.72,5041.6,4042.0,13157.82,27397.76
1239,0.65,0.01,0.0,0.481,0.0,33.98,23.91,-22834.32,10870.72,3665.6,6461.0,13117.82,27389.76
1259,0.698,0.0,0.024,0.447,0.0,37.48,30.79,-21390.32,14642.72,1017.6,2512.0,14706.82,26899.76
1279,0.626,0.0,0.927,0.261,0.0,40.82,36.9,-21350.32,14622.72,-474.4,-3319.0,15600.82,25001.76
1299,0.662,0.0,0.902,0.508,0.0,43.92,42.58,-20898.32,16510.72,-1106.4,-3758.0,17178.82,21470.76
1319,0.511,0.0,0.024,0.453,0.0,45.91,48.36,-17554.32,23282.72,-2994.4,671.0,17532.82,17564.76
1339,0.855,0.0,0.488,0.398,1.0,47.19,54.16,-11442.32,31614.72,-7778.4,2173.0,19717.82,13896.76
1359,0.745,0.0,0.39,0.577,0.0,48.34,59.91,-8470.32,37558.72,-10030.4,3963.0,21260.82,5189.76
1379,0.582,0.131,0.0,0.536,0.0,48.24,65.51,-9782.32,38561.72,-8390.4,5723.0,12653.82,-12921.24
1399,0.552,0.0,1.0,0.789,0.0,45.55,70.07,-13714.32,38561.72,-1514.4,4027.0,-7264.18,-32574.24
1419,0.452,0.0,0.561,0.447,0.0,40.24,73.03,-17446.32,28614.72,3665.6,-3089.0,-29904.18,-32574.24
1439,0.446,0.0,1.0,0.522,0.0,36.22,65.79,-25182.32,-6585.28,10137.6,-13057.0,-34051.18,-32574.24
1459,0.203,0.0,1.0,0.659,0.0,31.43,60.34,-29438.32,-26973.28,17317.6,-2614.0,-34051.18,-32574.24
1479,0.496,0.0,0.488,0.584,0.0,24.96,57.24,-5550.32,-26973.28,5437.6,19696.0,-34051.18,-32574.24
1499,0.579,0.139,0.0,0.556,1.0,22.88,56.58,2597.68,-26973.28,10409.6,33222.0,-1197.18,-30143.24
1519,0.466,0.0,0.268,0.426,0.0,24.7,55.27,-27382.32,-23173.28,22881.6,21415.0,8114.82,6142.76
1539,0.407,0.0,0.244,0.556,0.0,24.01,48.67,-25470.32,-22209.28,14257.6,-9942.0,-8627.18,17905.76
1559,0.508,0.0,1.0,0.556,0.155,25.14,42.26,-26258.32,-11021.28,5777.6,-4132.0,-1869.18,14429.76
1579,0.632,0.154,0.488,0.604,0.0,28.52,34.79,-27146.32,894.72,4961.6,-8799.0,3012.82,10148.76
1599,0.721,0.0,0.39,0.556,0.0,31.53,28.17,-28646.32,-105.28,6725.6,-11380.0,1918.82,8248.76
1619,0.709,0.0,1.0,0.419,0.0,34.57,23.25,-28010.32,1650.72,6577.6,-1551.0,1194.82,5841.76
1638,0.778,0.0,0.0,0.625,0.0,37.56,19.83,-26762.32,3278.72,6969.6,3130.0,219.82,4406.76
1659,0.517,0.0,0.0,0.536,0.0,39.79,16.2,-26362.32,1214.72,8005.6,112.0,-1307.18,1976.76
1679,0.532,0.018,0.756,0.659,0.0,41.57,11.46,-25070.32,-509.28,6697.6,-2337.0,-1507.18,-776.24
1699,0.689,0.0,0.024,0.419,0.0,43.04,6.95,-24914.32,-2357.28,7125.6,-2407.0,-978.18,-1530.24
1719,0.543,0.0,0.024,0.302,0.0,44.56,3.21,-25534.32,-2421.28,7189.6,1800.0,-489.18,-151.24
1739,0.751,0.0,0.268,0.824,1.0,46.1,-0.08,-25058.32,-1189.28,6901.6,4360.0,-992.18,1358.76
1759,0.538,0.0,0.585,0.639,0.0,47.64,-3.27,-25994.32,-1089.28,7349.6,3201.0,-1127.18,2201.76
1779,0.585,0.0,0.0,0.769,0.0,49.04,-6.9,-25822.32,-1121.28,7425.6,-691.0,-1584.18,2015.76
1799,0.618,0.0,0.0,0.543,0.0,50.19,-10.91,-24726.32,-1661.28,6689.6,-1967.0,-1706.18,573.76
1819,0.626,0.0,0.707,0.927,0.0,51.34,-14.77,-24586.32,-1893.28,6849.6,-2277.0,-1049.18,216.76
1839,0.597,0.0,1.0,0.81,1.0,52.51,-18.0,-25526.32,-3341.28,8413.6,-1712.0,654.82,-102.24
1859,0.635,0.063,0.0,0.44,0.0,53.99,-20.57,-26278.32,-1481.28,8609.6,356.0,968.82,888.76
1880,0.68,0.0,0.0,0.453,0.0,55.27,-23.09,-26018.32,-1237.28,7985.6,1413.0,-318.18,1562.76
1899,0.754,0.0,0.073,0.673,0.28,56.52,-25.95,-25586.32,-653.28,7185.6,446.0,-692.18,977.76
1919,0.541,0.0,0.732,1.0,0.0,57.5,-29.35,-24570.32,-1693.28,6285.6,-1137.0,-436.18,-214.24
1939,0.695,0.0,0.098,0.467,0.901,58.65,-32.26,-25274.32,-2065.28,7193.6,-836.0,991.82,-608.24
1959,0.76,0.199,0.732,0.824,0.0,59.73,-34.62,-26122.32,-2221.28,8049.6,307.0,799.82,-254.24
1979,0.683,0.0,0.439,0.0,1.0,60.63,-36.95,-26050.32,-1737.28,7509.6,1054.0,-654.18,335.76
1999,0.493,0.478,0.0,0.714,0.0,61.39,-39.43,-25678.32,-1605.28,6889.6,902.0,-1369.18,715.76
2019,0.692,0.0,0.0,0.556,0.0,62.07,-41.95,-25438.32,-1893.28,6817.6,369.0,-1231.18,802.76
2040,0.704,0.0,0.366,0.378,0.0,62.85,-44.1,-25938.32,-1737.28,7445.6,656.0,-640.18,696.76
2059,0.733,0.0,0.366,0.639,1.0,63.65,-46.07,-26154.32,-1405.28,7645.6,724.0,-684.18,616.76
2079,0.523,0.048,0.0,0.33,0.0,64.33,-47.93,-26074.32,-1357.28,7797.6,536.0,-1158.18,622.76
2099,1.0,0.0,0.073,1.0,0.0,64.92,-49.91,-25662.32,-1381.28,7405.6,295.0,-1375.18,561.76
2119,0.303,0.0,1.0,0.666,1.0,65.55,-51.67,-25838.32,-1397.28,7941.6,-103.0,-908.18,498.76
2139,0.641,0.0,0.317,0.323,1.0,66.14,-53.37,-25446.32,-1397.28,7861.6,87.0,-731.18,443.76
2159,0.629,0.0,0.0,0.364,0.0,66.79,-54.93,-25586.32,-1437.28,8029.6,245.0,-10.18,382.76
2179,0.665,0.01,1.0,1.0,1.0,67.54,-56.61,-25358.32,-1017.28,7549.6,-76.0,367.82,163.76
2198,0.612,0.244,0.0,0.563,0.0,68.25,-58.22,-26010.32,-1029.28,7729.6,-512.0,157.82,-4.24
2218,0.609,0.0,0.732,0.316,0.0,68.9,-59.74,-25946.32,-937.28,7609.6,-12.0,-136.18,-38.24
2239,0.538,0.0,0.0,0.0,0.0,69.5,-61.18,-25846.32,-913.28,7685.6,-169.0,-115.18,-256.24
2260,0.597,0.0,0.0,0.35,0.0,69.96,-62.68,-25646.32,-1461.28,7541.6,-257.0,-257.18,-516.24
2280,0.632,0.048,0.0,0.906,0.155,70.41,-63.84,-25906.32,-1417.28,7961.6,611.0,-207.18,-469.24
2299,0.484,0.0,0.0,0.865,1.0,70.76,-65.13,-25454.32,-1621.28,7557.6,512.0,-300.18,-538.24
2319,0.564,0.0,1.0,0.933,0.0,71.17,-66.26,-25922.32,-1717.28,8053.6,108.0,219.82,-642.24
2339,0.701,0.0,0.244,0.515,0.776,71.5,-67.37,-26190.32,-2025.28,8273.6,-428.0,47.82,-473.24
2359,0.662,0.116,0.415,0.693,1.0,71.7,-68.5,-25866.32,-2013.28,7833.6,103.0,-577.18,-81.24
2379,0.683,0.0,0.829,0.447,0.0,71.91,-69.52,-25850.32,-1761.28,7785.6,521.0,-630.18,117.76
2399,0.683,0.0,0.0,0.0,0.0,72.12,-70.55,-25690.32,-1629.28,7833.6,-24.0,-523.18,26.76
2419,0.632,0.0,0.341,0.522,1.0,72.3,-71.57,-25678.32,-1881.28,7957.6,-388.0,-326.18,91.76
2439,0.309,0.0,0.585,0.515,0.0,72.49,-72.5,-25614.32,-1817.28,7773.6,226.0,-185.18,253.76
2459,0.582,0.0,0.366,0.11,0.0,72.71,-73.35,-25698.32,-1625.28,7869.6,206.0,-140.18,205.76
2478,0.375,0.131,0.0,0.645,0.0,72.96,-74.23,-25702.32,-1501.28,7709.6,103.0,82.82,156.76
2499,0.683,0.0,0.683,0.0,1.0,73.18,-74.9,-26018.32,-1437.28,8233.6,-117.0,-10.18,111.76
2519,0.481,0.0,0.0,0.817,0.0,73.35,-75.57,-26030.32,-1273.28,8049.6,-44.0,-535.18,260.76
2538,0.588,0.0,0.976,0.556,0.0,73.44,-76.26,-25698.32,-1257.28,7885.6,34.0,-812.18,283.76
2559,0.538,0.0,0.0,0.33,0.0,73.55,-76.98,-25522.32,-1161.28,7781.6,-219.0,-628.18,74.76
2579,0.709,0.0,0.927,0.179,0.0,73.61,-77.73,-25358.32,-1549.28,7677.6,-185.0,-347.18,49.76
2598,0.81,0.086,0.0,1.0,0.0,73.68,-78.4,-25274.32,-1769.28,7705.6,177.0,39.82,-15.24
2619,0.745,0.0,1.0,0.673,0.0,73.87,-78.84,-25814.32,-1457.28,8057.6,441.0,463.82,-116.24
2638,0.686,0.0,0.0,0.268,0.0,74.02,-79.21,-25678.32,-1069.28,8209.6,111.0,44.82,-204.24
2659,0.772,0.003,0.0,0.35,0.0,74.0,-79.79,-25694.32,-1829.28,7833.6,-50.0,-358.18,-187.24
2678,0.683,0.0,0.0,0.639,0.0,74.02,-80.15,-25854.32,-1645.28,8065.6,589.0,-255.18,35.76
2699,0.419,0.0,0.439,1.0,1.0,74.02,-80.49,-25762.32,-1545.28,7997.6,639.0,-398.18,142.76
2718,0.662,0.0,0.049,0.152,1.0,74.03,-80.8,-25834.32,-1557.28,8145.6,439.0,-178.18,28.76
2739,0.529,0.0,0.707,0.152,0.0,74.03,-81.14,-25846.32,-1577.28,8229.6,-206.0,-170.18,-180.24
2759,0.864,0.0,0.073,0.028,0.0,74.01,-81.52,-25770.32,-1721.28,8093.6,-129.0,-110.18,-270.24
2778,0.591,0.0,0.0,1.0,0.0,73.97,-81.86,-25750.32,-1781.28,8085.6,-20.0,-60.18,-262.24
2799,0.686,0.0,1.0,0.152,0.0,73.94,-82.1,-25774.32,-1805.28,8177.6,332.0,75.82,-111.24
2819,0.804,0.871,0.0,1.0,0.0,73.89,-82.29,-25610.32,-1801.28,8249.6,377.0,144.82,131.76
2839,0.629,0.139,0.0,0.33,0.0,73.89,-82.48,-25954.32,-1605.28,8313.6,-59.0,123.82,153.76
2859,0.994,0.0,1.0,0.906,0.0,73.82,-82.89,-25818.32,-1789.28,7877.6,-501.0,-124.18,151.76
2879,0.864,0.0,0.073,0.0,0.0,73.71,-83.28,-25590.32,-1881.28,7761.6,-240.0,-92.18,154.76
2899,0.04,0.0,0.634,0.577,0.0,73.69,-83.36,-25838.32,-1513.28,8265.6,351.0,138.82,286.76
2919,0.76,0.0,0.0,0.186,1.0,73.69,-83.45,-25914.32,-1361.28,8101.6,444.0,88.82,369.76
2939,0.641,0.086,0.0,0.46,1.0,73.69,-83.6,-25854.32,-1305.28,8029.6,89.0,92.82,195.76
2958,0.967,0.199,1.0,0.405,0.0,73.66,-83.74,-25818.32,-1457.28,8101.6,-70.0,159.82,102.76
2979,0.212,0.0,1.0,0.556,1.0,73.53,-83.94,-25518.32,-1653.28,7845.6,219.0,-107.18,187.76
