timestamp,flex_1,flex_2,flex_3,flex_4,flex_5,kalman_pitch,kalman_roll,acc_x,acc_y,acc_z,gyro_x,gyro_y,gyro_z
0,1.0,0.0,0.434,0.792,1.0,-36.48,26.88,-3789.6,1555.28,20463.52,1960.4,-762.98,-128.7
19,1.0,0.0,0.884,0.786,1.0,-38.85,9.49,-3069.6,1555.28,20347.52,368.4,-238.98,16.3
39,1.0,0.0,0.756,0.805,1.0,-37.65,1.99,-4749.6,651.28,21171.52,-335.6,-1075.98,-382.7
58,1.0,0.0,0.498,0.786,1.0,-38.01,-2.5,-4165.6,263.28,20635.52,-21.6,-3770.98,-294.7
77,1.0,0.007,0.498,0.786,0.439,-39.92,-4.62,-1601.6,1251.28,20107.52,-272.6,-3196.98,-554.7
96,1.0,0.007,0.563,0.78,1.0,-40.36,-6.71,-577.6,479.28,21643.52,-2252.6,2724.02,-1286.7
115,1.0,0.007,0.37,0.792,1.0,-38.26,-8.51,-2833.6,-588.72,24951.52,-2351.6,8726.02,-1677.7
134,1.0,0.0,0.949,0.842,1.0,-35.49,-10.59,-4317.6,-2968.72,26007.52,-784.6,10872.02,-200.7
153,1.0,0.0,0.498,0.873,1.0,-32.9,-12.71,-2809.6,-5184.72,25699.52,1960.4,15476.02,2248.3
172,1.0,0.007,0.37,0.88,1.0,-29.38,-13.83,-4577.6,-3800.72,25943.52,3611.4,21990.02,6496.3
192,1.0,0.0,0.82,0.88,1.0,-24.76,-14.27,-7777.6,-7224.72,31595.52,9280.4,23639.02,10839.3
211,1.0,0.0,0.563,0.886,1.0,-20.95,-11.98,-5385.6,1259.28,27639.52,16263.4,28526.02,15457.3
230,1.0,0.0,0.498,1.0,1.0,-16.36,-9.34,-6717.6,4595.28,30439.52,13709.4,31583.02,14883.3
250,1.0,0.135,0.434,1.0,1.0,-11.19,-8.14,-10889.6,895.28,33671.52,10541.4,31583.02,12620.3
270,1.0,0.0,0.37,1.0,1.0,-5.49,-5.86,-16089.6,2023.28,34279.52,17516.4,31583.02,13226.3
290,1.0,0.0,0.37,1.0,1.0,0.14,-2.78,-18361.6,5107.28,34447.52,20546.4,31583.02,12587.3
310,1.0,0.0,0.241,0.823,1.0,5.3,-0.4,-18357.6,6767.28,34755.52,15261.4,31583.02,8169.3
330,1.0,0.0,0.434,1.0,1.0,10.31,0.88,-19933.6,5415.28,35107.52,10476.4,31583.02,5851.3
350,1.0,0.0,0.498,0.855,1.0,14.89,2.73,-19553.6,5091.28,34359.52,15494.4,31583.02,9097.3
370,1.0,0.0,0.627,0.873,1.0,19.82,5.82,-23709.6,8139.28,32855.52,21354.4,31583.02,10057.3
390,1.0,0.0,0.756,1.0,1.0,24.56,8.62,-23369.6,9471.28,28703.52,17818.4,31583.02,4727.3
410,1.0,0.0,0.37,0.992,1.0,29.4,10.76,-24281.6,9159.28,25331.52,13507.4,31583.02,341.3
430,1.0,0.0,0.434,1.0,1.0,34.05,13.14,-22337.6,8595.28,20483.52,13901.4,31583.02,-742.7
450,1.0,0.0,0.563,1.0,1.0,38.68,15.98,-21541.6,8163.28,17215.52,15712.4,31583.02,43.3
470,1.0,0.0,0.498,0.28,1.0,43.36,19.66,-21409.6,8719.28,14559.52,16426.4,31583.02,978.3
490,1.0,0.0,0.563,0.262,1.0,48.62,23.05,-21561.6,7199.28,12203.52,14427.4,31583.02,983.3
510,1.0,0.0,0.177,0.274,1.0,53.88,25.9,-20533.6,6035.28,11131.52,13332.4,31583.02,216.3
530,1.0,0.0,0.627,0.243,1.0,58.63,29.75,-19581.6,6451.28,10099.52,12788.4,31493.02,65.3
550,1.0,0.0,0.434,0.218,1.0,63.07,34.27,-21365.6,6711.28,9343.52,11946.4,27814.02,655.3
570,1.0,0.0,0.498,0.193,1.0,67.12,39.05,-22433.6,6271.28,8747.52,11085.4,23882.02,987.3
590,1.0,0.0,0.498,0.256,1.0,70.77,44.63,-21657.6,5647.28,7951.52,9183.4,21613.02,385.3
610,1.0,0.0,0.82,0.193,1.0,74.04,52.12,-23001.6,4995.28,7095.52,7938.4,18427.02,901.3
630,1.0,0.0,0.305,0.181,1.0,76.25,59.42,-23165.6,5627.28,6543.52,8165.4,15259.02,2415.3
650,1.0,0.0,0.756,0.28,1.0,77.67,67.18,-22629.6,5683.28,5483.52,6629.4,13887.02,1303.3
670,1.0,0.0,0.434,0.181,1.0,78.54,74.65,-22833.6,5795.28,4759.52,4612.4,12670.02,-16.7
690,1.0,0.0,0.37,0.162,1.0,79.03,81.57,-23985.6,6055.28,4723.52,5061.4,9786.02,1562.3
710,1.0,0.0,0.434,0.199,1.0,78.91,87.99,-24657.6,6731.28,4035.52,5099.4,7548.02,2743.3
730,1.0,0.0,0.563,0.181,0.901,78.12,94.02,-23581.6,6951.28,3527.52,4145.4,5581.02,2563.3
750,1.0,0.0,0.305,0.168,1.0,77.35,99.2,-24069.6,7599.28,3359.52,2803.4,6121.02,684.3
770,1.0,0.0,0.305,0.181,1.0,76.4,103.87,-25345.6,8143.28,3015.52,2194.4,4360.02,570.3
790,1.0,0.0,0.498,0.181,1.0,75.08,108.32,-25297.6,8207.28,2767.52,2147.4,2025.02,1509.3
810,1.0,0.0,0.241,0.149,1.0,73.59,112.68,-24517.6,7843.28,2515.52,1574.4,1186.02,1298.3
830,1.0,0.0,0.305,0.162,1.0,72.06,116.71,-24765.6,8151.28,2175.52,1283.4,968.02,439.3
850,1.0,0.0,0.434,0.124,1.0,70.54,120.21,-25349.6,8575.28,2079.52,404.4,289.02,-679.7
870,1.0,0.0,0.37,0.149,1.0,69.06,123.35,-26105.6,8863.28,2239.52,638.4,-741.98,24.3
890,1.0,0.0,0.37,0.149,1.0,67.49,126.27,-26413.6,8947.28,1995.52,124.4,-1960.98,977.3
910,1.0,0.0,0.305,0.1,1.0,66.07,128.98,-25845.6,8931.28,2067.52,204.4,-1121.98,838.3
930,1.0,0.0,0.305,0.162,1.0,64.86,131.42,-26961.6,9255.28,1931.52,50.4,-875.98,808.3
950,1.0,0.0,0.37,0.149,1.0,63.62,133.58,-27341.6,9643.28,1859.52,-10.6,-1480.98,667.3
970,1.0,0.0,0.37,0.174,1.0,62.41,135.47,-27441.6,9643.28,1763.52,-1119.6,-1838.98,-526.7
989,1.0,0.0,0.627,0.168,1.0,61.37,137.25,-27085.6,9107.28,2003.52,-1058.6,-1957.98,-58.7
1008,1.0,0.0,0.241,0.149,1.0,60.48,138.79,-27613.6,9527.28,2107.52,-617.6,-1528.98,879.3
1028,1.0,0.0,0.434,0.137,1.0,59.59,140.3,-27637.6,9631.28,2151.52,-325.6,-1603.98,1006.3
1048,1.0,0.0,0.498,0.162,1.0,58.87,141.86,-28265.6,9523.28,1875.52,-117.6,-1183.98,704.3
1068,1.0,0.0,0.305,0.143,1.0,58.18,143.34,-28333.6,9411.28,1703.52,-481.6,-1394.98,606.3
1088,1.0,0.0,0.305,0.149,1.0,57.41,144.49,-27637.6,9783.28,1843.52,-924.6,-1353.98,452.3
1108,1.0,0.0,0.37,0.149,1.0,56.8,145.46,-27705.6,10027.28,1863.52,-993.6,-526.98,-201.7
1127,1.0,0.0,0.498,0.143,1.0,56.34,146.39,-27713.6,9887.28,1955.52,-323.6,-130.98,366.3
1147,1.0,0.0,0.434,0.137,1.0,55.86,147.33,-28337.6,10071.28,2011.52,234.4,-700.98,943.3
1167,1.0,0.0,0.498,0.143,1.0,55.28,148.13,-27469.6,10239.28,1831.52,-308.6,-516.98,-226.7
1186,0.96,0.0,0.305,0.137,1.0,54.89,148.74,-27545.6,10115.28,1879.52,-770.6,75.02,-963.7
1206,0.912,0.0,0.756,0.118,1.0,54.67,149.52,-28061.6,9671.28,2063.52,-194.6,271.02,-235.7
1226,0.96,0.0,0.241,0.149,1.0,54.31,150.21,-28161.6,10095.28,1927.52,129.4,-437.98,382.3
1246,1.0,0.0,0.177,0.118,1.0,53.94,150.82,-27473.6,9839.28,1991.52,-389.6,-394.98,-146.7
1265,0.912,0.0,0.498,0.137,1.0,53.62,151.3,-27049.6,9867.28,1915.52,-431.6,83.02,-403.7
1285,0.912,0.0,0.563,0.143,1.0,53.41,151.87,-27789.6,9875.28,1875.52,-144.6,283.02,40.3
1305,0.865,0.0,0.37,0.118,1.0,53.18,152.29,-27873.6,9931.28,2207.52,-64.6,-304.98,479.3
1325,0.865,0.0,0.434,0.137,1.0,52.95,152.6,-27569.6,9935.28,2139.52,-597.6,-45.98,-524.7
1344,0.817,0.0,0.498,0.181,1.0,52.8,152.87,-27745.6,9759.28,2071.52,-640.6,-79.98,-855.7
1363,0.722,0.0,0.241,0.143,1.0,52.64,153.15,-27589.6,10067.28,1935.52,20.4,265.02,-304.7
1383,0.722,0.0,0.305,0.181,1.0,52.49,153.39,-27745.6,10247.28,2163.52,148.4,278.02,-104.7
1403,0.817,0.0,0.241,0.137,1.0,52.4,153.6,-27769.6,9975.28,2355.52,103.4,176.02,96.3
1423,0.77,0.0,0.37,0.124,1.0,52.33,153.81,-27781.6,9847.28,2307.52,12.4,137.02,-189.7
1443,0.77,0.0,0.498,0.087,1.0,52.21,153.97,-27625.6,10035.28,2047.52,-276.6,308.02,-946.7
1463,0.912,0.0,0.305,0.112,1.0,52.13,154.23,-27521.6,9699.28,2043.52,-9.6,232.02,-842.7
1483,0.817,0.0,0.37,0.137,1.0,51.99,154.51,-27221.6,9747.28,1915.52,189.4,129.02,-491.7
1503,0.817,0.0,0.177,0.112,1.0,51.97,154.76,-27353.6,9495.28,2115.52,136.4,391.02,-638.7
1523,0.77,0.0,0.498,0.118,0.175,51.93,155.05,-27657.6,9295.28,1907.52,-98.6,-29.98,-554.7
1542,0.77,0.0,0.37,0.137,1.0,51.86,155.17,-27641.6,9371.28,2027.52,-329.6,-387.98,-322.7
1561,0.675,0.0,0.627,0.174,1.0,51.79,155.23,-27197.6,9395.28,2087.52,-489.6,-220.98,-490.7
1580,0.865,0.0,0.37,0.149,1.0,51.82,155.24,-27569.6,9447.28,2163.52,-459.6,180.02,-234.7
1600,0.722,0.0,0.563,0.137,1.0,51.83,155.27,-27769.6,9643.28,2299.52,41.4,90.02,368.3
1620,0.817,0.0,0.37,0.137,1.0,51.8,155.28,-27985.6,9867.28,1915.52,-320.6,38.02,-104.7
1640,0.817,0.0,0.498,0.143,1.0,51.7,155.23,-27745.6,9795.28,1995.52,-553.6,-431.98,-517.7
1659,0.77,0.0,0.37,0.118,0.967,51.61,155.15,-27529.6,9783.28,1879.52,-535.6,-279.98,-564.7
1678,0.817,0.0,0.756,0.118,1.0,51.57,155.05,-27545.6,9731.28,1959.52,-555.6,-130.98,-618.7
1697,1.0,0.0,0.305,0.162,1.0,51.56,155.02,-27601.6,9675.28,1943.52,-79.6,-58.98,-179.7
1716,1.0,0.0,0.305,0.149,1.0,51.55,154.88,-27965.6,10031.28,2035.52,-97.6,-92.98,-303.7
1735,1.0,0.0,0.37,0.112,1.0,51.57,154.76,-27877.6,9595.28,2171.52,-330.6,-347.98,-665.7
1754,1.0,0.0,0.498,0.124,1.0,51.56,154.65,-27657.6,9707.28,2159.52,-61.6,-322.98,-598.7
1773,1.0,0.0,0.434,0.1,1.0,51.61,154.5,-27781.6,9679.28,2031.52,-527.6,29.02,-869.7
1793,1.0,0.0,0.563,0.149,1.0,51.65,154.47,-27793.6,9423.28,2019.52,-494.6,-96.98,-708.7
1812,1.0,0.0,0.37,0.137,1.0,51.75,154.4,-27365.6,9235.28,2183.52,-391.6,201.02,-562.7
1832,1.0,0.0,0.305,0.093,1.0,51.92,154.35,-27565.6,9467.28,2171.52,-95.6,818.02,-429.7
1852,1.0,0.0,0.37,0.137,1.0,52.12,154.3,-27925.6,9355.28,2311.52,91.4,631.02,-73.7
1872,1.0,0.0,0.498,0.143,1.0,52.21,154.24,-27749.6,9463.28,2111.52,-80.6,305.02,78.3
1892,1.0,0.0,0.498,0.149,1.0,52.33,154.14,-27461.6,9399.28,2147.52,-319.6,528.02,-98.7
1912,1.0,0.0,0.563,0.143,1.0,52.53,153.96,-27705.6,9487.28,2235.52,-519.6,968.02,-410.7
1932,1.0,0.0,0.498,0.081,0.571,52.71,153.78,-27897.6,9591.28,2139.52,-363.6,901.02,-698.7
1952,1.0,0.0,0.305,0.143,1.0,52.73,153.6,-28153.6,9827.28,2035.52,-187.6,-126.98,-125.7
1971,1.0,0.0,0.756,0.149,1.0,52.64,153.43,-27289.6,9723.28,1843.52,-281.6,-345.98,-234.7
1990,1.0,0.0,0.241,0.149,1.0,52.64,153.22,-27401.6,9767.28,1911.52,-289.6,161.02,-609.7
2010,1.0,0.0,0.37,0.181,1.0,52.73,152.99,-27905.6,9887.28,2135.52,-195.6,424.02,-603.7
2030,1.0,0.0,0.177,0.137,1.0,52.75,152.76,-28009.6,9847.28,1903.52,-549.6,26.02,-496.7
2050,1.0,0.0,0.241,0.168,1.0,52.74,152.64,-27817.6,9479.28,1923.52,-333.6,-386.98,-402.7
2069,1.0,0.0,0.498,0.149,1.0,52.8,152.4,-27385.6,9495.28,2231.52,-340.6,85.02,-767.7
2089,1.0,0.023,0.305,0.143,1.0,52.94,152.2,-28029.6,9647.28,2199.52,-86.6,355.02,-569.7
2109,1.0,0.0,1.0,0.137,1.0,53.0,151.94,-27997.6,9779.28,2215.52,-203.6,-0.98,-369.7
2128,1.0,0.0,0.563,0.149,1.0,53.02,151.64,-27705.6,9683.28,2155.52,-536.6,-234.98,-484.7
2147,1.0,0.0,0.305,0.149,1.0,53.03,151.45,-27437.6,9383.28,1959.52,-598.6,-280.98,-598.7
2166,0.96,0.0,0.563,0.149,0.0,53.1,151.2,-27497.6,9623.28,2179.52,-268.6,205.02,-622.7
2186,1.0,0.0,0.0,0.143,1.0,53.16,151.04,-27705.6,9515.28,2071.52,-177.6,18.02,-351.7
2206,0.96,0.0,0.37,0.149,1.0,53.26,150.84,-27905.6,9479.28,2175.52,-320.6,21.02,-293.7
2226,0.96,0.0,0.177,0.143,1.0,53.3,150.56,-28113.6,9623.28,2195.52,-581.6,-369.98,-349.7
2245,0.912,0.0,0.305,0.137,1.0,53.36,150.5,-27389.6,8931.28,2059.52,-257.6,-339.98,-158.7
2264,0.912,0.0,0.498,0.118,1.0,53.52,150.28,-27605.6,9395.28,2147.52,-356.6,578.02,-452.7
2284,0.817,0.0,0.305,0.156,1.0,53.7,150.17,-27881.6,9123.28,2055.52,-401.6,418.02,-287.7
2304,0.817,0.0,0.37,0.149,1.0,53.85,150.0,-28433.6,9287.28,2031.52,-594.6,100.02,-302.7
2324,0.865,0.0,0.434,0.156,1.0,53.89,149.79,-28153.6,9019.28,2171.52,-1022.6,-774.98,41.3
2344,0.817,0.0,0.305,0.149,1.0,53.95,149.54,-27541.6,9051.28,2403.52,-806.6,-487.98,337.3
2364,0.912,0.0,0.113,0.193,1.0,54.09,149.14,-27593.6,9703.28,2631.52,-421.6,365.02,253.3
2384,0.77,0.0,0.177,0.149,1.0,54.18,148.64,-28013.6,10179.28,2471.52,-705.6,263.02,137.3
2404,0.77,0.0,0.627,0.149,1.0,54.32,148.32,-27785.6,9739.28,2295.52,-511.6,531.02,-135.7
2424,0.817,0.0,0.241,0.149,1.0,54.44,148.04,-27961.6,9991.28,2095.52,-152.6,604.02,-166.7
2444,0.817,0.0,0.305,0.149,1.0,54.52,147.8,-27845.6,9951.28,2135.52,141.4,386.02,-55.7
2464,0.817,0.0,0.498,0.149,1.0,54.56,147.57,-27549.6,9907.28,1947.52,-187.6,418.02,-479.7
2484,0.817,0.0,0.241,0.143,1.0,54.64,147.33,-27745.6,9895.28,1951.52,-244.6,548.02,-838.7
2504,0.77,0.0,0.37,0.149,1.0,54.7,147.14,-27793.6,9883.28,1911.52,-30.6,393.02,-647.7
2524,0.865,0.0,0.177,0.149,1.0,54.76,147.0,-27573.6,9543.28,1979.52,-16.6,266.02,-367.7
2544,0.77,0.0,0.884,0.156,1.0,54.83,146.88,-27745.6,9519.28,1955.52,-23.6,232.02,-242.7
2564,0.77,0.0,0.756,0.143,1.0,54.93,146.7,-27833.6,9515.28,2139.52,-81.6,296.02,-472.7
2584,0.77,0.0,0.434,0.156,1.0,54.99,146.41,-27733.6,9651.28,2271.52,-357.6,52.02,-549.7
2604,0.722,0.0,0.884,0.124,1.0,55.08,146.2,-27829.6,9491.28,2211.52,-227.6,69.02,-237.7
2624,0.722,0.0,0.498,0.149,1.0,55.12,146.01,-27921.6,9547.28,2087.52,-217.6,-89.98,-53.7
2643,0.627,0.0,0.241,0.156,1.0,55.16,145.74,-27681.6,9619.28,2155.52,-360.6,-70.98,-310.7
2662,0.58,0.0,0.434,0.112,1.0,55.19,145.49,-27909.6,9527.28,2039.52,-665.6,-202.98,-481.7
2681,0.532,0.0,0.241,0.137,1.0,55.21,145.26,-27725.6,9411.28,2303.52,-344.6,-474.98,-136.7
2700,0.532,0.0,0.177,0.143,1.0,55.24,145.04,-27913.6,9435.28,2371.52,-96.6,-585.98,129.3
2720,0.722,0.0,0.177,0.149,1.0,55.23,144.76,-27753.6,9435.28,2507.52,-383.6,-802.98,69.3
2740,0.532,0.0,0.756,0.137,1.0,55.23,144.55,-27469.6,9307.28,2531.52,-114.6,-739.98,50.3
2760,0.532,0.0,0.37,0.137,1.0,55.32,144.33,-27869.6,9151.28,2691.52,-172.6,-545.98,-195.7
2779,0.627,0.0,0.498,0.156,1.0,55.33,144.22,-27941.6,9147.28,2199.52,-140.6,-888.98,-68.7
2798,0.675,0.0,0.305,0.124,1.0,55.36,143.99,-27365.6,9079.28,2495.52,-598.6,-667.98,-157.7
2817,0.722,0.0,0.177,0.124,1.0,55.43,143.83,-27285.6,8959.28,2299.52,-788.6,-338.98,-179.7
2836,0.77,0.0,0.627,0.137,1.0,55.5,143.61,-27745.6,9395.28,2195.52,-582.6,-138.98,283.3
2856,0.96,0.0,0.305,0.174,1.0,55.49,143.42,-27465.6,9523.28,2159.52,-290.6,-429.98,665.3
2876,0.912,0.0,0.305,0.149,1.0,55.5,143.05,-27957.6,10063.28,2319.52,-489.6,-291.98,190.3
2896,0.96,0.0,0.305,0.137,1.0,55.46,142.6,-27997.6,10199.28,2403.52,-802.6,-605.98,-238.7
2915,0.96,0.0,0.37,0.1,1.0,55.45,142.14,-27793.6,10215.28,2495.52,-690.6,-439.98,-217.7
2934,1.0,0.0,0.434,0.143,1.0,55.53,141.76,-27861.6,10071.28,2659.52,-133.6,-62.98,-42.7
2953,1.0,0.0,0.434,0.143,1.0,55.6,141.42,-28157.6,10099.28,2579.52,31.4,-165.98,-107.7
2973,1.0,0.0,0.498,0.131,1.0,55.65,141.07,-27857.6,9935.28,2595.52,-444.6,-295.98,-605.7
2992,1.0,0.0,0.241,0.143,1.0,55.76,140.79,-27709.6,9635.28,2631.52,-333.6,-54.98,-696.7
