timestamp,flex_1,flex_2,flex_3,flex_4,flex_5,kalman_pitch,kalman_roll,acc_x,acc_y,acc_z,gyro_x,gyro_y,gyro_z
0,0.831,0.0,0.341,0.885,0.0,42.76,-66.87,397.68,-3281.28,23229.6,1869.0,-6254.18,-9184.24
20,1.0,0.108,0.0,0.11,0.0,28.96,-60.22,873.68,-1397.28,21029.6,398.0,-6339.18,-5207.24
40,1.0,0.335,0.659,0.508,0.0,17.6,-55.15,1041.68,146.72,18453.6,567.0,-8088.18,-3448.24
60,1.0,0.0,1.0,0.097,0.0,8.72,-49.27,861.68,2618.72,19277.6,4635.0,-8575.18,-3219.24
80,1.0,0.373,0.805,0.316,0.0,1.8,-43.53,-366.32,3754.72,19653.6,7811.0,-9611.18,-2029.24
100,1.0,0.146,0.0,0.556,1.0,-4.68,-38.09,605.68,5174.72,18341.6,8202.0,-10407.18,-2050.24
120,1.0,0.0,0.0,0.666,0.0,-10.03,-34.42,177.68,5142.72,18869.6,1262.0,-10803.18,-4080.24
140,1.0,0.0,0.0,0.453,0.0,-15.15,-33.53,1241.68,2822.72,18537.6,-7688.0,-12599.18,-5342.24
160,1.0,0.0,0.0,0.385,0.0,-19.74,-34.63,1917.68,158.72,18013.6,-13171.0,-12621.18,-5806.24
180,0.76,0.0,1.0,0.158,0.0,-23.5,-36.12,1593.68,250.72,17561.6,-16030.0,-10145.18,-5379.24
200,0.573,0.0,0.0,0.762,1.0,-26.55,-38.04,61.68,234.72,16533.6,-18431.0,-8501.18,-3655.24
220,0.469,0.0,0.683,0.735,1.0,-29.4,-40.44,1829.68,-1565.28,16865.6,-19194.0,-8448.18,2339.76
240,0.404,0.146,0.073,0.652,0.652,-32.41,-43.76,2573.68,-2893.28,14941.6,-21626.0,-9769.18,6103.76
260,0.493,0.275,0.341,0.543,0.0,-34.86,-47.62,2597.68,-4445.28,14889.6,-24704.0,-8647.18,8489.76
280,0.493,0.161,0.39,0.741,1.0,-36.76,-51.9,3149.68,-6637.28,13673.6,-25031.0,-6684.18,11158.76
300,0.588,0.101,0.341,0.844,0.0,-37.67,-55.65,2233.68,-9065.28,14297.6,-22246.0,-3499.18,13877.76
320,0.543,0.063,0.341,0.837,0.0,-38.6,-58.84,3673.68,-9021.28,13537.6,-18975.0,-2513.18,16788.76
340,0.437,0.0,0.61,1.0,0.0,-39.11,-61.68,4001.68,-10177.28,13549.6,-17263.0,-494.18,19527.76
360,0.529,0.0,0.366,0.0,1.0,-39.11,-64.04,4893.68,-10929.28,13613.6,-14807.0,3040.82,21887.76
380,0.671,0.0,0.0,1.0,1.0,-38.68,-66.15,4561.68,-9637.28,13677.6,-14857.0,6547.82,23412.76
400,0.778,0.229,0.073,1.0,0.901,-37.72,-68.97,3625.68,-12293.28,13725.6,-19350.0,8124.82,24634.76
420,0.775,0.0,0.098,0.364,0.404,-36.96,-72.46,4341.68,-15749.28,13093.6,-23123.0,6095.82,26198.76
440,0.843,0.0,0.049,0.618,0.0,-36.51,-75.93,5153.68,-16893.28,12037.6,-23100.0,4424.82,27716.76
460,0.852,0.0,0.341,0.68,0.0,-36.22,-79.14,6233.68,-17125.28,10893.6,-21489.0,4207.82,29656.76
480,0.795,0.0,0.0,0.179,1.0,-35.84,-82.09,5945.68,-17325.28,10869.6,-20892.0,4656.82,32560.76
500,0.721,1.0,0.0,0.618,0.0,-35.63,-85.14,5617.68,-18949.28,10901.6,-22471.0,2689.82,32960.76
520,0.715,0.0,0.0,0.398,0.0,-35.7,-88.38,6353.68,-20061.28,8325.6,-22706.0,1036.82,32960.76
540,0.745,0.116,1.0,0.591,0.0,-35.86,-91.57,7529.68,-20425.28,6585.6,-22059.0,887.82,32960.76
560,0.632,0.131,0.0,0.289,0.0,-35.75,-94.25,5401.68,-20209.28,7133.6,-20241.0,1619.82,32960.76
580,0.775,0.0,0.0,0.44,0.0,-35.95,-96.67,5017.68,-19989.28,6253.6,-18691.0,-643.18,32960.76
600,0.588,0.0,0.0,0.68,0.0,-36.22,-98.49,3961.68,-18513.28,5725.6,-14979.0,-1270.18,32960.76
620,0.769,0.199,0.951,0.796,0.0,-36.3,-99.61,1969.68,-17157.28,6293.6,-11383.0,-869.18,32960.76
640,0.683,0.0,0.0,0.591,0.0,-36.57,-100.44,469.68,-13861.28,5469.6,-9005.0,-1832.18,32960.76
660,0.621,0.0,1.0,1.0,0.901,-36.42,-100.83,-3638.32,-12745.28,6233.6,-7115.0,-2167.18,32960.76
680,0.65,0.0,1.0,0.783,1.0,-36.31,-100.11,-4702.32,-14817.28,6973.6,-353.0,-4060.18,32960.76
700,0.742,0.0,0.415,0.597,0.0,-36.15,-98.05,-5494.32,-7393.28,6833.6,8766.0,-1655.18,32960.76
720,0.582,0.214,1.0,0.529,0.0,-35.59,-96.26,-8262.32,-3949.28,7497.6,5785.0,-1113.18,32960.76
740,0.727,0.01,0.0,0.261,0.0,-35.19,-94.8,-8198.32,-5637.28,6197.6,6827.0,-2830.18,32960.76
760,0.609,0.0,0.0,0.57,0.0,-35.1,-91.82,-7490.32,-2277.28,5297.6,19942.0,-1370.18,32960.76
780,0.686,0.0,0.098,0.885,0.0,-32.05,-88.09,-12846.32,3390.72,6593.6,19749.0,-509.18,32960.76
800,0.739,0.0,0.0,0.515,0.0,-28.2,-85.62,-13806.32,3266.72,6121.6,16181.0,897.82,32960.76
821,0.505,0.0,0.976,0.556,1.0,-22.79,-87.63,-15782.32,5758.72,4221.6,18161.0,4027.82,32960.76
840,0.641,0.0,0.0,0.323,0.0,-17.61,-90.35,-17190.32,5678.72,3889.6,12455.0,3076.82,32960.76
860,0.588,0.0,0.341,0.7,0.0,-12.51,-75.85,-17286.32,6610.72,4113.6,13446.0,3422.82,31723.76
880,0.472,0.0,0.073,0.481,1.0,-7.84,-63.29,-18726.32,8726.72,3653.6,13527.0,4464.82,29048.76
900,0.532,0.0,0.0,0.563,0.652,-3.62,-52.09,-18834.32,9394.72,3225.6,7726.0,4088.82,26376.76
920,0.561,0.0,0.0,0.501,1.0,0.13,-41.53,-19066.32,9770.72,2617.6,5172.0,2917.82,25048.76
940,0.555,0.0,1.0,0.515,0.652,3.38,-30.94,-19258.32,10758.72,1193.6,6643.0,2828.82,23833.76
960,0.588,0.0,0.0,0.447,0.0,5.9,-20.84,-18378.32,13570.72,857.6,9687.0,2808.82,22793.76
980,0.68,0.0,0.024,0.2,0.0,8.1,-11.19,-18262.32,16890.72,-318.4,10475.0,4290.82,20645.76
1000,0.478,0.0,1.0,0.508,0.0,10.18,-1.96,-17994.32,17686.72,-1870.4,8730.0,5253.82,17431.76
1020,0.576,0.0,0.0,1.0,0.0,11.6,7.13,-15798.32,21706.72,-3582.4,11132.0,5327.82,14230.76
1040,0.674,0.01,1.0,1.0,0.0,12.29,16.42,-12566.32,27534.72,-6162.4,15514.0,4484.82,11382.76
1060,0.68,0.0,0.024,0.618,0.0,12.73,25.46,-9802.32,33410.72,-9346.4,16405.0,4970.82,5802.76
1080,0.748,0.599,0.512,0.789,0.031,12.82,33.18,-11450.32,36010.72,-9586.4,10531.0,1816.82,-6348.24
1100,0.683,0.0,0.585,0.474,1.0,10.67,38.44,-17934.32,38138.72,-4150.4,-946.0,-17293.18,-26107.24
1120,0.766,0.018,0.341,0.453,0.0,6.5,40.99,-19622.32,32838.72,1565.6,-15448.0,-34051.18,-32574.24
1140,0.739,0.0,0.78,0.803,0.0,4.93,41.11,-19542.32,9738.72,5977.6,-28724.0,-34051.18,-32574.24
1160,0.778,0.0,0.829,0.851,0.0,1.66,33.03,-27298.32,-21717.28,19081.6,-31472.0,-34051.18,-32574.24
1180,0.967,0.0,0.341,0.508,0.0,-1.97,29.36,-22110.32,-26973.28,20105.6,-2461.0,-34051.18,-32574.24
1200,1.0,0.0,0.0,0.447,1.0,-4.42,30.63,3449.68,-20593.28,13937.6,33222.0,-11700.18,-31546.24
1220,0.683,0.0,0.0,0.433,0.0,0.78,33.08,-31622.32,-25417.28,35373.6,33222.0,21831.82,7630.76
1240,0.665,0.0,0.073,0.261,0.0,4.59,28.74,-43182.32,-22921.28,27793.6,-10094.0,8229.82,16368.76
1260,0.668,0.0,0.024,0.508,0.28,8.78,23.44,-24314.32,-10669.28,13769.6,-13578.0,14118.82,19680.76
1280,0.647,0.388,0.122,1.0,0.0,13.85,18.47,-26330.32,-5417.28,12377.6,-14003.0,16619.82,19451.76
1300,0.698,0.0,0.805,0.94,0.0,19.52,13.54,-24646.32,654.72,7881.6,-11651.0,15941.82,23707.76
1320,0.588,0.0,0.0,0.0,0.0,25.42,8.97,-26910.32,1454.72,7309.6,-9046.0,16992.82,26351.76
1340,0.618,0.139,0.0,0.378,1.0,31.84,9.09,-25482.32,5790.72,6781.6,-3248.0,17756.82,29023.76
1360,0.588,0.0,0.0,0.618,0.0,37.54,16.19,-24758.32,7790.72,4953.6,3860.0,16924.82,28400.76
1380,0.52,0.516,0.0,0.68,0.0,41.88,23.17,-25770.32,14886.72,3185.6,8751.0,17586.82,26079.76
1400,0.606,0.0,1.0,0.755,0.776,45.44,29.65,-22790.32,16786.72,501.6,3921.0,18334.82,24474.76
1420,0.692,0.0,0.683,0.563,0.0,48.65,35.0,-23626.32,16630.72,-230.4,-3303.0,16606.82,22248.76
1441,0.52,0.0,0.0,0.001,1.0,50.89,40.36,-20982.32,19490.72,-1622.4,-1608.0,15547.82,19252.76
1460,0.683,0.0,0.024,0.625,1.0,52.16,46.76,-17778.32,25666.72,-4706.4,7161.0,15092.82,16982.76
1481,0.763,0.0,0.341,0.556,1.0,52.81,53.5,-15318.32,32118.72,-7538.4,11632.0,14382.82,15542.76
1500,0.721,0.0,0.0,0.447,0.0,52.47,60.45,-14166.32,35610.72,-10190.4,14580.0,8967.82,9257.76
1520,0.757,0.0,0.0,0.707,0.0,50.54,67.14,-12662.32,38561.72,-10318.4,15515.0,-842.18,-6106.24
1541,0.775,0.0,0.341,0.392,0.0,46.19,71.54,-18982.32,37974.72,-5866.4,3902.0,-21473.18,-29142.24
1560,0.523,0.0,1.0,0.206,0.0,40.84,73.2,-23118.32,30542.72,2525.6,-9526.0,-34051.18,-32574.24
1580,0.662,0.0,1.0,0.508,0.0,38.52,70.57,-17382.32,6442.72,6745.6,-19712.0,-34051.18,-32574.24
1600,0.549,0.229,0.366,0.33,0.0,33.3,62.79,-21418.32,-20473.28,15669.6,-17283.0,-34051.18,-32574.24
1620,0.76,0.0,0.122,0.673,0.0,27.44,57.61,-12422.32,-26973.28,13257.6,1407.0,-34051.18,-32574.24
1640,0.778,0.056,0.341,1.0,0.0,24.16,56.84,-1770.32,-21645.28,18513.6,26731.0,-11428.18,-32574.24
1660,0.677,0.0,0.22,0.467,0.0,22.02,51.36,-11530.32,-22797.28,17669.6,-4443.0,-10615.18,-6207.24
1680,0.65,0.0,1.0,0.371,0.0,21.98,45.3,-18506.32,-23873.28,16565.6,-8688.0,-965.18,10240.76
1700,0.668,0.0,0.171,0.57,0.0,23.43,39.68,-23914.32,-13577.28,12765.6,-6897.0,2934.82,12709.76
1720,0.822,0.0,0.463,0.666,0.0,26.01,33.65,-26826.32,-5281.28,9437.6,-10258.0,3745.82,10664.76
1740,0.698,0.0,0.634,0.666,0.0,29.04,27.62,-26506.32,-1133.28,7465.6,-9753.0,3593.82,8095.76
1760,0.626,0.131,0.39,0.481,0.0,32.06,22.63,-26770.32,370.72,7753.6,-6119.0,2617.82,6614.76
1779,0.603,0.0,0.537,0.673,0.0,35.01,19.44,-27178.32,1746.72,8645.6,22.0,1803.82,5158.76
1800,0.748,0.0,0.0,0.57,0.0,37.48,17.63,-27362.32,1914.72,10069.6,4406.0,130.82,3089.76
1820,0.724,0.0,0.0,0.529,0.0,39.41,16.17,-26514.32,1946.72,11185.6,4107.0,-1727.18,-3.24
1840,0.6,0.078,0.0,0.179,1.0,40.96,13.62,-25050.32,582.72,10293.6,1186.0,-2728.18,-2492.24
1860,0.591,0.297,1.0,0.0,1.0,42.43,11.09,-25390.32,-1085.28,11497.6,1091.0,-937.18,-2682.24
1880,0.567,0.131,1.0,0.371,0.901,43.72,8.75,-25622.32,-2189.28,12317.6,2035.0,-563.18,-1565.24
1900,0.52,0.0,0.683,0.652,0.0,44.91,6.49,-25194.32,-2173.28,11849.6,2859.0,-835.18,-32.24
1920,0.629,0.0,0.0,0.556,0.0,46.13,4.06,-25254.32,-1629.28,11581.6,1058.0,-945.18,502.76
1940,0.73,0.0,0.073,0.639,1.0,47.35,1.25,-25090.32,-1961.28,11205.6,-1004.0,-436.18,367.76
1960,0.781,0.0,0.683,0.714,0.0,48.56,-1.58,-25058.32,-2021.28,11085.6,-1463.0,-95.18,331.76
1980,0.662,0.0,0.732,0.7,0.0,49.82,-4.36,-24642.32,-1817.28,10413.6,-744.0,355.82,362.76
2000,0.668,0.0,0.317,0.405,0.0,51.27,-6.76,-24842.32,-1321.28,10681.6,198.0,1609.82,379.76
2020,0.822,0.0,0.0,0.323,0.0,52.87,-8.76,-25518.32,-669.28,11241.6,513.0,2474.82,401.76
2040,0.686,0.0,0.683,0.556,0.0,54.33,-10.78,-25562.32,-397.28,10921.6,81.0,1555.82,705.76
2060,0.825,0.0,0.22,0.398,0.0,55.65,-13.11,-25446.32,-701.28,10217.6,-590.0,975.82,409.76
2080,0.68,0.0,0.0,0.796,0.0,56.87,-15.62,-25546.32,-1177.28,9985.6,-1278.0,930.82,-253.24
2100,0.499,0.01,1.0,0.296,0.0,57.97,-17.84,-25718.32,-1369.28,10281.6,-159.0,676.82,-189.24
2120,0.582,0.0,0.756,0.57,0.0,58.98,-19.81,-25422.32,-1277.28,10121.6,1171.0,491.82,30.76
2140,0.632,0.0,0.683,0.618,1.0,60.0,-21.58,-25694.32,-941.28,10489.6,1028.0,553.82,69.76
2160,0.606,0.0,0.0,0.385,0.0,60.9,-23.59,-25518.32,-1261.28,10013.6,313.0,297.82,34.76
2180,0.526,0.0,0.0,0.11,0.776,61.83,-25.38,-25898.32,-1153.28,10477.6,370.0,664.82,105.76
2200,0.591,0.0,0.0,0.213,0.0,62.64,-27.23,-25678.32,-1105.28,10241.6,-94.0,184.82,267.76
2219,0.635,0.0,1.0,0.591,0.0,63.31,-29.25,-25118.32,-1629.28,9689.6,19.0,-37.18,386.76
2240,0.582,0.0,0.0,0.056,0.0,64.03,-30.91,-25398.32,-1269.28,10089.6,845.0,352.82,476.76
2260,0.57,0.0,0.0,0.666,0.0,64.76,-32.39,-25398.32,-877.28,10157.6,1007.0,304.82,417.76
2280,0.644,0.0,0.098,0.117,0.0,65.5,-33.91,-25406.32,-705.28,10145.6,284.0,460.82,210.76
2300,0.659,0.0,0.415,0.0,0.0,66.16,-35.61,-25562.32,-1165.28,10033.6,-569.0,533.82,79.76
2320,0.567,0.0,0.707,1.0,0.0,66.7,-37.37,-25474.32,-1697.28,9817.6,-344.0,279.82,113.76
2340,0.712,0.0,0.073,0.447,0.28,67.22,-38.93,-25222.32,-1429.28,9581.6,789.0,278.82,314.76
2359,0.683,0.146,1.0,0.447,0.0,67.86,-40.22,-25490.32,-777.28,9905.6,808.0,665.82,438.76
2379,0.68,0.0,0.341,0.666,0.0,68.42,-41.54,-25418.32,-789.28,10001.6,83.0,423.82,413.76
2399,0.493,0.0,0.0,0.522,0.0,68.88,-42.92,-25534.32,-889.28,9893.6,-253.0,1.82,270.76
2420,0.623,0.0,0.707,0.378,1.0,69.29,-44.14,-25518.32,-797.28,9945.6,244.0,-174.18,250.76
2440,0.701,0.093,0.561,0.344,0.0,69.67,-45.3,-25450.32,-589.28,9877.6,201.0,-451.18,109.76
2460,0.541,0.0,0.0,1.0,0.0,69.95,-46.48,-25498.32,-785.28,10017.6,-335.0,-678.18,-83.24
2480,0.686,0.0,0.341,0.597,0.0,70.2,-47.88,-24926.32,-1057.28,9401.6,-396.0,-528.18,-254.24
2500,0.618,0.0,0.0,0.261,1.0,70.51,-48.98,-25494.32,-1281.28,10209.6,-227.0,352.82,-299.24
2520,0.552,0.0,0.659,0.398,0.0,70.85,-49.81,-25894.32,-1073.28,10573.6,367.0,450.82,-174.24
2540,0.686,0.0,0.0,0.467,1.0,71.05,-50.78,-25746.32,-1421.28,10225.6,255.0,-38.18,-158.24
2559,0.662,0.139,0.0,0.556,0.0,71.3,-51.7,-26086.32,-1417.28,10157.6,420.0,106.82,1.76
2579,0.629,0.0,0.0,0.453,0.0,71.54,-52.52,-26062.32,-1057.28,10245.6,355.0,6.82,219.76
2600,0.603,0.0,0.22,0.35,0.901,71.73,-53.44,-25910.32,-1097.28,10017.6,-176.0,-222.18,245.76
2620,0.629,0.0,0.0,0.7,0.0,71.87,-54.4,-25846.32,-1481.28,10013.6,-165.0,-92.18,202.76
2640,0.781,0.0,0.0,0.783,0.0,72.09,-55.06,-25710.32,-985.28,10077.6,836.0,267.82,386.76
2660,0.635,0.0,0.0,0.412,0.0,72.35,-55.56,-25766.32,-497.28,10285.6,707.0,314.82,409.76
2680,0.582,0.131,1.0,0.405,0.28,72.57,-56.27,-25686.32,-717.28,10061.6,-173.0,343.82,222.76
2700,0.65,0.101,0.341,0.447,0.0,72.67,-57.13,-25122.32,-1141.28,9761.6,-232.0,186.82,175.76
2720,0.641,0.0,0.0,0.618,0.0,72.88,-57.87,-25002.32,-1273.28,9669.6,677.0,1192.82,117.76
2740,0.579,0.335,0.0,0.639,0.0,73.17,-58.27,-25446.32,-997.28,10469.6,820.0,1860.82,110.76
2760,0.541,0.018,0.439,0.625,0.0,73.42,-58.66,-25834.32,-761.28,10713.6,-51.0,1387.82,-93.24
2780,0.641,0.0,0.0,0.7,0.0,73.45,-59.37,-25478.32,-849.28,10161.6,-1199.0,33.82,16.76
2800,0.644,0.0,0.366,0.639,0.0,73.34,-60.53,-25030.32,-1181.28,9165.6,-1978.0,-706.18,-159.24
2820,0.588,0.0,0.0,0.344,0.0,73.22,-61.72,-24854.32,-1741.28,9061.6,-1724.0,-214.18,-331.24
2840,0.52,0.0,0.0,0.344,0.0,73.25,-62.48,-25538.32,-1733.28,9701.6,-507.0,721.82,-334.24
2859,0.594,0.0,0.0,0.543,0.0,73.33,-62.9,-25902.32,-1345.28,9993.6,514.0,790.82,24.76
2879,0.538,0.0,0.0,0.556,0.404,73.36,-63.35,-25674.32,-977.28,9561.6,721.0,67.82,347.76
2899,0.683,0.0,0.0,0.227,0.0,73.35,-63.91,-25474.32,-949.28,9297.6,383.0,-84.18,376.76
2920,0.579,0.0,0.756,0.46,0.0,73.45,-64.43,-25518.32,-765.28,9181.6,503.0,440.82,208.76
2939,0.606,0.0,1.0,0.412,0.0,73.62,-64.75,-25810.32,-649.28,9621.6,512.0,937.82,-5.24
2960,0.6,0.0,0.561,0.844,0.0,73.73,-64.93,-26194.32,-693.28,9985.6,663.0,660.82,-224.24
2980,0.686,0.0,0.78,0.659,0.0,73.66,-65.11,-25874.32,-769.28,9945.6,708.0,-214.18,-161.24
