timestamp,flex_1,flex_2,flex_3,flex_4,flex_5,kalman_pitch,kalman_roll,acc_x,acc_y,acc_z,gyro_x,gyro_y,gyro_z
0,0.0,0.731,0.335,0.498,0.859,-70.62,-46.7,-857.2,-919.76,17050.48,-2002.38,-4975.3,73.06
20,0.0,0.71,0.244,0.48,1.0,-68.88,-46.6,782.8,-1791.76,16166.48,-1348.38,-3690.3,2581.06
38,0.0,0.71,0.396,0.47,1.0,-68.34,-46.33,1222.8,-1471.76,15926.48,153.62,-747.3,2200.06
57,0.002,0.724,0.396,0.484,1.0,-68.19,-45.44,1014.8,-579.76,15574.48,-55.38,2323.7,-192.94
76,0.002,0.71,0.0,0.473,0.761,-67.15,-45.26,562.8,-1491.76,16106.48,576.62,3842.7,-779.94
95,0.0,0.794,0.365,0.494,0.859,-66.34,-46.11,1890.8,-2195.76,15238.48,3950.62,5876.7,60.06
116,0.0,0.689,0.518,0.505,0.81,-64.13,-42.79,1178.8,-715.76,18646.48,7681.62,11133.7,2418.06
135,0.002,0.675,0.365,0.48,1.0,-61.27,-39.04,-149.2,136.24,20086.48,7654.62,13996.7,3232.06
155,0.0,0.703,0.365,0.487,0.859,-57.68,-35.74,-861.2,-291.76,23450.48,6095.62,14262.7,2258.06
176,0.0,0.696,0.274,0.484,1.0,-54.49,-33.28,-1857.2,-1663.76,24914.48,6317.62,10302.7,657.06
195,0.0,0.682,0.365,0.484,0.81,-51.89,-30.77,-1285.2,-1647.76,26498.48,8008.62,8245.7,2453.06
214,0.0,0.731,0.335,0.477,0.859,-49.87,-27.66,-153.2,-751.76,28106.48,11749.62,6140.7,6108.06
232,0.0,0.71,0.365,0.463,0.81,-47.52,-23.8,598.8,1364.24,30134.48,15087.62,9442.7,5877.06
253,0.0,0.703,0.274,0.48,0.859,-45.07,-20.24,482.8,2256.24,30282.48,13187.62,10981.7,6678.06
272,0.0,0.71,0.365,0.395,0.712,-42.68,-17.82,322.8,1064.24,31570.48,8993.62,10782.7,7392.06
292,0.0,0.731,0.365,0.48,0.859,-40.64,-16.07,2018.8,500.24,31138.48,6621.62,11389.7,7413.06
312,0.0,0.71,0.365,0.498,1.0,-38.29,-14.18,2674.8,288.24,31950.48,8641.62,14634.7,7288.06
333,0.0,0.752,0.365,0.48,0.907,-35.71,-11.97,3386.8,1072.24,31522.48,10940.62,18257.7,5843.06
353,0.0,0.717,0.365,0.484,1.0,-32.94,-10.18,2758.8,1084.24,31098.48,9136.62,20592.7,3664.06
372,0.0,0.731,0.304,0.498,0.907,-30.25,-8.93,2342.8,136.24,30910.48,7414.62,21069.7,2335.06
393,0.0,0.71,0.365,0.487,0.615,-27.63,-8.01,1346.8,-1279.76,29474.48,7954.62,21781.7,2710.06
412,1.0,0.745,0.365,0.494,0.859,-25.15,-7.25,422.8,-2547.76,29774.48,8809.62,20899.7,2350.06
433,1.0,0.759,0.365,0.505,0.81,-23.09,-6.49,-361.2,-3119.76,28838.48,10359.62,18889.7,2514.06
453,1.0,0.773,0.365,0.508,0.81,-21.3,-5.7,-757.2,-3767.76,27618.48,12387.62,18301.7,2396.06
472,1.0,0.773,0.365,0.516,1.0,-20.02,-3.98,4346.8,-1947.76,27082.48,18099.62,21266.7,336.06
492,1.0,0.815,0.396,0.508,0.907,-18.52,-3.7,-2453.2,-2591.76,27202.48,8729.62,16955.7,1681.06
511,0.999,0.808,0.365,0.487,1.0,-17.27,-3.37,-2593.2,-3367.76,26018.48,11670.62,17353.7,3129.06
530,1.0,0.822,0.365,0.512,0.859,-15.98,-2.94,-3401.2,-2063.76,25878.48,10877.62,18002.7,3406.06
549,0.984,0.815,0.365,0.519,1.0,-14.53,-2.53,-5133.2,-1467.76,25602.48,10312.62,18379.7,2517.06
568,0.788,0.822,0.365,0.508,1.0,-13.28,-2.11,-5421.2,-499.76,24550.48,9566.62,18376.7,1052.06
586,0.965,0.808,0.365,0.512,1.0,-12.17,-1.48,-6657.2,1192.24,22750.48,9177.62,18487.7,464.06
607,1.0,0.801,0.365,0.516,1.0,-10.87,-0.48,-7997.2,3424.24,21586.48,7097.62,19171.7,-1118.94
626,1.0,0.773,0.335,0.519,0.859,-9.37,0.27,-10029.2,4048.24,20774.48,4481.62,19616.7,-3203.94
646,1.0,0.773,0.365,0.501,0.907,-7.79,0.87,-10797.2,4112.24,21030.48,3395.62,18359.7,-4644.94
666,0.932,0.773,0.365,0.48,1.0,-6.7,1.71,-11041.2,4236.24,20946.48,4957.62,15342.7,-5031.94
685,1.0,0.787,0.365,0.508,0.956,-5.95,3.53,-11593.2,5896.24,18950.48,6902.62,14064.7,-6464.94
706,1.0,0.773,0.396,0.512,0.859,-5.69,4.95,-10693.2,5156.24,18602.48,6594.62,13859.7,-8916.94
725,1.0,0.759,0.396,0.508,0.859,-6.02,5.73,-9665.2,3476.24,18234.48,7873.62,13199.7,-10231.94
746,1.0,0.773,0.365,0.516,0.712,-6.49,7.2,-10533.2,4936.24,16702.48,7073.62,12957.7,-10672.94
766,1.0,0.78,0.396,0.512,0.859,-7.12,7.98,-11417.2,4824.24,15650.48,2041.62,11948.7,-11528.94
786,1.0,0.78,0.396,0.494,0.907,-7.26,6.7,-12757.2,2884.24,16982.48,-2876.38,8760.7,-12528.94
806,1.0,0.787,0.396,0.508,0.859,-6.86,4.9,-14833.2,1172.24,18082.48,-1676.38,4477.7,-10024.94
824,1.0,0.773,0.365,0.498,0.81,-6.35,4.18,-16237.2,2032.24,19026.48,1992.62,998.7,-7351.94
844,1.0,0.801,0.304,0.505,0.859,-6.03,4.21,-17041.2,2952.24,20326.48,4103.62,-1833.3,-5017.94
864,1.0,0.759,0.365,0.505,0.81,-5.85,4.59,-17245.2,3816.24,21094.48,4494.62,-2944.3,30.06
884,1.0,0.787,0.365,0.494,0.956,-5.58,5.6,-16805.2,6172.24,20666.48,3311.62,-1466.3,3366.06
904,1.0,0.773,0.365,0.505,1.0,-5.2,6.8,-16449.2,9608.24,21542.48,-1099.38,612.7,3086.06
924,1.0,0.752,0.487,0.487,0.907,-4.67,7.21,-16993.2,9412.24,22334.48,-5285.38,735.7,1429.06
944,1.0,0.731,0.365,0.487,0.859,-4.14,7.69,-16629.2,8964.24,22422.48,-4007.38,1559.7,32.06
964,1.0,0.808,0.365,0.494,1.0,-3.35,8.19,-18041.2,8668.24,23890.48,-2307.38,1340.7,-836.94
984,1.0,0.759,0.365,0.501,0.712,-2.86,8.84,-18177.2,8264.24,24382.48,-256.38,-712.3,-60.94
1003,1.0,0.745,0.426,0.501,0.81,-2.5,9.57,-18649.2,8384.24,25254.48,860.62,-2195.3,121.06
1024,1.0,0.668,0.365,0.494,0.859,-2.5,10.33,-18301.2,8668.24,26942.48,1639.62,-3426.3,-100.94
1043,1.0,0.731,0.365,0.519,0.907,-2.75,11.39,-16617.2,9476.24,26462.48,2578.62,-3013.3,-202.94
1064,0.013,0.745,0.365,0.456,1.0,-2.76,12.53,-16473.2,10448.24,26438.48,2319.62,-1333.3,-1037.94
1083,0.004,0.752,0.365,0.48,0.859,-2.51,13.6,-17137.2,11848.24,26986.48,878.62,-363.3,-1925.94
1102,0.01,0.724,0.365,0.586,0.907,-2.36,14.43,-16809.2,11792.24,27106.48,-423.38,-568.3,-2971.94
1120,0.008,0.759,0.365,0.498,1.0,-2.34,15.27,-16257.2,11856.24,27150.48,-78.38,-799.3,-3669.94
1140,0.013,0.731,0.335,0.498,0.956,-2.34,16.14,-16465.2,11768.24,27866.48,911.62,-1197.3,-4432.94
1159,0.011,0.752,0.365,0.512,0.81,-2.4,17.08,-16253.2,11388.24,28266.48,2358.62,-1410.3,-5451.94
1178,0.01,0.731,0.365,0.498,1.0,-2.49,18.17,-15937.2,11536.24,28214.48,3682.62,-1288.3,-6222.94
1197,0.01,0.724,0.457,0.494,0.859,-2.69,19.3,-15261.2,12212.24,28210.48,3511.62,-1299.3,-6690.94
1216,0.013,0.745,0.365,0.477,1.0,-2.86,20.18,-14821.2,12428.24,27474.48,1498.62,-609.3,-7701.94
1235,0.01,0.724,0.335,0.487,0.81,-2.85,20.67,-14797.2,12172.24,26994.48,-1069.38,617.7,-9237.94
1254,0.004,0.724,0.365,0.487,0.81,-2.77,20.74,-15333.2,10816.24,27154.48,-2331.38,499.7,-10551.94
1273,0.008,0.724,0.365,0.48,1.0,-2.81,20.75,-15073.2,10008.24,27122.48,-1760.38,-72.3,-11243.94
1292,0.0,0.724,0.365,0.456,1.0,-2.82,21.03,-14725.2,10492.24,26390.48,-787.38,692.7,-12218.94
1311,0.0,0.731,0.365,0.491,0.907,-2.63,21.13,-15221.2,9456.24,25774.48,-1063.38,1416.7,-13727.94
1330,0.002,0.738,0.365,0.48,0.859,-2.39,20.98,-16029.2,8044.24,26530.48,-501.38,713.7,-14646.94
1349,0.002,0.731,0.426,0.494,0.859,-2.37,21.02,-15741.2,8044.24,26526.48,671.62,-388.3,-14954.94
1370,0.0,0.738,0.365,0.477,0.859,-2.47,21.05,-15389.2,7640.24,25782.48,918.62,-722.3,-15789.94
1390,0.0,0.71,0.152,0.519,1.0,-2.55,20.92,-16053.2,6400.24,26706.48,1833.62,-1581.3,-16550.94
1410,0.002,0.745,0.426,0.477,0.761,-2.87,21.0,-15541.2,6208.24,27394.48,3686.62,-2568.3,-16670.94
1430,0.0,0.731,0.426,0.508,0.907,-3.25,21.03,-14553.2,6216.24,26634.48,3309.62,-1798.3,-17926.94
1450,0.0,0.689,0.365,0.48,1.0,-3.37,20.59,-15233.2,4720.24,26862.48,2190.62,-1107.3,-18890.94
1470,0.002,0.717,0.304,0.487,0.81,-3.41,19.8,-16141.2,3252.24,27178.48,1680.62,-1774.3,-18777.94
1490,0.002,0.731,0.365,0.484,1.0,-3.49,18.88,-16069.2,2664.24,27406.48,1413.62,-2032.3,-18448.94
1510,0.002,0.717,0.457,0.484,0.0,-3.38,17.78,-16673.2,2376.24,27134.48,316.62,-1570.3,-18089.94
1530,0.002,0.724,0.365,0.48,0.859,-3.08,16.08,-17505.2,-339.76,27374.48,-637.38,-1254.3,-17930.94
1549,0.0,0.745,0.365,0.519,0.859,-2.72,14.28,-18233.2,-2723.76,28082.48,757.62,-1510.3,-17343.94
1568,0.002,0.724,0.365,0.484,0.273,-2.35,12.89,-17941.2,-2843.76,28162.48,3291.62,-1052.3,-15721.94
1587,0.002,0.717,0.365,0.484,1.0,-1.7,11.9,-18089.2,-839.76,26562.48,4068.62,540.7,-14268.94
1607,0.0,0.717,0.335,0.48,0.615,-0.83,10.51,-18541.2,-763.76,25814.48,1127.62,1476.7,-13240.94
1627,0.004,0.71,0.396,0.494,1.0,0.05,8.41,-19413.2,-2271.76,26010.48,-2315.38,781.7,-12195.94
1647,0.0,0.794,0.365,0.48,0.859,0.76,6.19,-19541.2,-2955.76,25898.48,-2857.38,-154.3,-11398.94
1665,0.002,0.724,0.365,0.487,0.859,1.44,4.33,-19917.2,-2715.76,25538.48,-1158.38,-899.3,-9675.94
1685,0.006,0.822,0.396,0.484,0.615,1.98,2.83,-20905.2,-3371.76,26114.48,1334.62,-2588.3,-7876.94
1704,0.004,0.71,0.365,0.48,0.907,2.23,1.81,-21469.2,-4491.76,27130.48,5091.62,-4745.3,-6074.94
1722,0.006,0.71,0.396,0.48,0.078,2.26,1.6,-20257.2,-2699.76,27010.48,8820.62,-5244.3,-4267.94
1742,0.004,0.717,0.365,0.47,0.907,2.43,2.02,-19229.2,784.24,26386.48,8933.62,-3375.3,-3162.94
1762,0.004,0.71,0.365,0.48,1.0,2.93,1.95,-19381.2,1868.24,26342.48,4373.62,-1379.3,-3726.94
1782,0.004,0.717,0.365,0.477,0.761,3.49,1.0,-19781.2,520.24,27498.48,-183.38,-917.3,-3805.94
1801,0.006,0.717,0.365,0.484,0.712,4.02,-0.03,-19337.2,440.24,27366.48,-1094.38,-511.3,-3049.94
1820,0.004,0.696,0.365,0.47,0.81,4.7,-0.97,-19737.2,888.24,26970.48,-1211.38,47.7,-2690.94
1840,0.006,0.717,0.304,0.477,1.0,5.39,-1.64,-20065.2,1972.24,26758.48,-763.38,-187.3,-1874.94
1859,0.008,0.71,0.365,0.47,0.907,5.9,-2.22,-19597.2,2324.24,26758.48,-972.38,-668.3,-1446.94
1879,0.008,0.668,0.365,0.473,0.859,6.28,-2.74,-19037.2,2728.24,26918.48,-1278.38,-840.3,-1323.94
1897,0.01,0.717,0.365,0.494,0.566,6.61,-3.22,-18781.2,3320.24,26898.48,-2003.38,-726.3,-1341.94
1916,0.01,0.731,0.365,0.48,0.859,7.04,-3.88,-18985.2,3324.24,27162.48,-3470.38,-52.3,-1541.94
1935,0.0,0.71,0.365,0.494,0.615,7.62,-4.73,-19125.2,2600.24,26842.48,-4166.38,817.7,-1353.94
1955,0.01,0.696,0.365,0.484,1.0,8.23,-5.6,-19313.2,1800.24,27226.48,-3273.38,1066.7,-1341.94
1975,0.008,0.71,0.396,0.466,1.0,8.73,-5.99,-18905.2,2508.24,27062.48,-1171.38,878.7,-827.94
1995,0.011,0.745,0.365,0.494,1.0,9.2,-6.09,-19193.2,3720.24,26754.48,-848.38,420.7,-515.94
2015,0.01,0.703,0.365,0.47,0.859,9.57,-6.43,-19133.2,2708.24,26810.48,-1250.38,-83.3,-790.94
2034,0.008,0.703,0.335,0.484,1.0,9.81,-6.75,-19453.2,1360.24,27422.48,195.62,-1077.3,-28.94
2054,0.006,0.71,0.365,0.512,0.907,9.94,-6.53,-18989.2,3100.24,27418.48,1884.62,-1233.3,1096.06
2074,0.008,0.71,0.335,0.459,0.859,10.16,-6.17,-18533.2,4704.24,27114.48,889.62,-100.3,516.06
2094,0.006,0.71,0.365,0.47,1.0,10.5,-6.2,-18781.2,3532.24,26974.48,-267.38,439.7,-252.94
2114,0.01,0.71,0.304,0.47,1.0,10.81,-6.28,-19085.2,2788.24,27130.48,170.62,14.7,-344.94
2134,0.008,0.717,0.365,0.48,0.907,11.06,-6.18,-19117.2,3672.24,27062.48,361.62,-379.3,-46.94
2155,0.006,0.738,0.335,0.466,0.859,11.27,-6.14,-18877.2,3656.24,26782.48,-108.38,-340.3,-65.94
2173,0.008,0.71,0.365,0.466,1.0,11.44,-6.19,-18925.2,3120.24,27042.48,-105.38,-576.3,-47.94
2192,0.011,0.71,0.426,0.477,1.0,11.56,-6.15,-18913.2,3012.24,27070.48,553.62,-811.3,164.06
2212,0.011,0.71,0.365,0.484,0.615,11.72,-5.9,-18581.2,3932.24,26898.48,948.62,-171.3,104.06
2232,0.002,0.71,0.365,0.466,0.615,12.01,-5.72,-18637.2,4376.24,26398.48,-30.38,619.7,-247.94
2252,0.004,0.717,0.365,0.466,0.859,12.28,-5.89,-19021.2,3144.24,26578.48,-887.38,135.7,-398.94
2272,0.004,0.71,0.365,0.473,0.761,12.39,-6.0,-18977.2,2988.24,26702.48,-419.38,-817.3,291.06
2292,0.01,0.71,0.365,0.473,0.712,12.48,-5.93,-18813.2,3856.24,26810.48,-276.38,-677.3,466.06
2312,0.002,0.71,0.365,0.47,0.517,12.63,-5.94,-18749.2,3756.24,26754.48,-716.38,-189.3,65.06
2332,0.004,0.71,0.396,0.47,0.566,12.76,-6.09,-18817.2,2904.24,27010.48,-706.38,-248.3,-176.94
2351,0.008,0.717,0.213,0.47,0.859,12.87,-6.09,-18925.2,2892.24,27078.48,205.62,-487.3,11.06
2371,0.008,0.696,0.365,0.473,0.615,12.97,-5.91,-18833.2,3780.24,27054.48,398.62,-358.3,317.06
2391,0.006,0.71,0.426,0.48,0.81,13.05,-5.79,-18525.2,4000.24,26958.48,-192.38,-168.3,226.06
2411,0.006,0.724,0.365,0.48,0.907,13.12,-5.77,-18601.2,3568.24,26942.48,-462.38,-301.3,39.06
2431,0.008,0.633,0.365,0.466,0.859,13.16,-5.74,-18649.2,3272.24,27130.48,-19.38,-503.3,-122.94
2450,0.006,0.717,0.396,0.473,0.907,13.21,-5.53,-18745.2,3912.24,27002.48,411.62,-524.3,19.06
2470,0.008,0.724,0.396,0.473,0.761,13.23,-5.36,-18621.2,4168.24,27034.48,-112.38,-555.3,-17.94
2489,0.002,0.703,0.365,0.473,0.273,13.18,-5.28,-18377.2,3788.24,26722.48,-374.38,-760.3,-209.94
2508,0.002,0.703,0.365,0.47,0.907,13.17,-5.25,-18425.2,3320.24,27142.48,-137.38,-468.3,-262.94
2526,0.004,0.71,0.365,0.47,0.859,13.24,-5.07,-18353.2,4008.24,26854.48,98.62,126.7,-217.94
2547,0.002,0.661,0.396,0.48,1.0,13.35,-5.0,-18669.2,3816.24,27086.48,-338.38,85.7,-419.94
2567,0.004,0.843,0.396,0.459,0.566,13.36,-4.97,-18765.2,3204.24,27198.48,67.62,-668.3,-236.94
2587,0.008,0.724,0.304,0.466,0.859,13.31,-4.8,-18521.2,3328.24,27262.48,875.62,-765.3,-167.94
2607,0.0,0.647,0.396,0.47,0.468,13.3,-4.56,-18321.2,3684.24,27066.48,915.62,-305.3,-111.94
2627,0.004,0.759,0.396,0.466,1.0,13.38,-4.44,-18549.2,3916.24,27090.48,-52.38,83.7,-209.94
2647,0.004,0.703,0.365,0.473,0.712,13.46,-4.51,-18637.2,3256.24,27354.48,-645.38,77.7,-422.94
2667,0.008,0.724,0.091,0.466,1.0,13.52,-4.54,-18589.2,3088.24,27278.48,-184.38,4.7,-255.94
2687,0.004,0.689,0.365,0.466,0.81,13.59,-4.44,-18385.2,3528.24,26790.48,169.62,196.7,-71.94
2706,0.004,0.71,0.457,0.48,0.956,13.66,-4.31,-18549.2,4092.24,26934.48,-280.38,145.7,-127.94
2727,0.004,0.71,0.335,0.452,1.0,13.67,-4.35,-18549.2,3676.24,27022.48,-940.38,-208.3,-403.94
2746,0.01,0.717,0.396,0.473,0.859,13.62,-4.42,-18481.2,2988.24,27274.48,-471.38,-522.3,-497.94
2765,0.004,0.787,0.365,0.501,1.0,13.62,-4.32,-18409.2,3032.24,27254.48,646.62,-17.3,-502.94
2784,0.002,0.71,0.365,0.47,0.81,13.73,-4.12,-18513.2,3552.24,27322.48,815.62,590.7,-315.94
2804,0.0,0.703,0.396,0.463,0.859,13.83,-4.0,-18541.2,3804.24,27022.48,-33.38,489.7,-89.94
2825,0.004,0.717,0.365,0.473,0.859,13.89,-4.07,-18761.2,3580.24,26950.48,-1084.38,-24.3,-143.94
2844,0.006,0.745,0.365,0.463,1.0,13.87,-4.2,-18725.2,2872.24,26958.48,-781.38,-444.3,-180.94
2862,0.01,0.71,0.365,0.47,0.663,13.84,-4.12,-18461.2,3068.24,27034.48,504.62,-255.3,-138.94
2882,0.006,0.717,0.365,0.47,0.907,13.91,-3.86,-18365.2,3828.24,26882.48,780.62,534.7,-169.94
2903,0.004,0.71,0.426,0.47,0.907,14.01,-3.8,-18517.2,3680.24,27006.48,-271.38,627.7,-486.94
2922,0.008,0.71,0.365,0.484,1.0,14.08,-3.93,-18921.2,2800.24,27026.48,-589.38,24.7,-211.94
2942,0.008,0.71,0.213,0.47,1.0,14.02,-3.93,-18725.2,3048.24,27074.48,-69.38,-576.3,215.06
2962,0.002,0.724,0.365,0.473,0.907,13.98,-3.76,-18345.2,3772.24,26538.48,263.62,-192.3,180.06
2983,0.004,0.724,0.365,0.47,0.859,13.97,-3.67,-18457.2,3684.24,26894.48,-147.38,7.7,-115.94
