timestamp,flex_1,flex_2,flex_3,flex_4,flex_5,kalman_pitch,kalman_roll,acc_x,acc_y,acc_z,gyro_x,gyro_y,gyro_z
0,0.585,0.255,1.0,0.197,1.0,45.26,-27.39,-1340.88,2263.28,18917.36,1547.52,2026.18,1225.04
17,0.543,0.213,0.999,0.132,1.0,10.38,-28.26,-148.88,2099.28,18165.36,644.52,6253.18,1914.04
38,0.811,0.234,1.0,0.132,0.349,-1.01,-31.46,-2728.88,-1452.72,19629.36,-538.48,9806.18,2470.04
58,0.838,0.0,0.999,0.0,1.0,-8.14,-31.86,-1660.88,-620.72,20749.36,2697.52,7020.18,1784.04
77,1.0,0.34,0.315,0.002,1.0,-13.96,-30.87,-676.88,707.28,19601.36,9657.52,5448.18,1619.04
98,0.84,0.77,0.0,0.55,0.0,-18.14,-29.34,-1944.88,2295.28,18529.36,10126.52,5363.18,1118.04
118,0.906,0.0,1.0,0.067,1.0,-19.73,-27.73,-4372.88,2787.28,21045.36,5655.52,4725.18,-728.96
138,1.0,0.417,1.0,0.337,0.0,-19.97,-27.0,-6852.88,1879.28,24353.36,347.52,833.18,-2553.96
159,0.818,0.093,0.0,0.783,0.0,-20.04,-27.22,-8148.88,435.28,26717.36,-4194.48,-2647.82,-3982.96
178,0.62,0.0,0.0,0.55,0.0,-21.1,-28.15,-7568.88,1347.28,27393.36,-11431.48,-8266.82,-7025.96
198,0.309,0.1,0.847,1.0,0.153,-23.86,-31.41,-1372.88,-2584.72,24641.36,-18925.48,-9509.82,-6315.96
218,0.214,0.0,0.011,0.764,0.0,-25.5,-35.96,-96.88,-7904.72,26317.36,-24742.48,-4896.82,-2153.96
238,0.7,0.749,0.011,0.597,0.349,-25.55,-38.75,-3600.88,-8856.72,32497.36,-18996.48,-998.82,6758.04
258,0.344,0.0,1.0,0.16,0.0,-25.98,-40.16,-848.88,-8224.72,29737.36,-9411.48,327.18,17653.04
278,0.694,0.0,0.0,0.039,0.609,-25.84,-42.1,-2832.88,-9096.72,29085.36,-12568.48,2127.18,22735.04
298,0.642,0.0,0.315,0.216,0.902,-25.66,-45.89,-656.88,-13692.72,26649.36,-21176.48,4220.18,26127.04
319,0.251,0.0,0.0,0.0,1.0,-24.96,-50.16,1767.12,-19088.72,24641.36,-21782.48,8864.18,28587.04
338,0.074,0.114,1.0,0.048,1.0,-23.2,-52.71,91.12,-18628.72,24453.36,-11890.48,15551.18,30124.04
358,0.0,0.0,0.315,0.0,0.121,-20.83,-53.55,-1152.88,-16512.72,24517.36,-2299.48,20289.18,32890.04
378,0.074,0.0,0.366,0.0,0.153,-18.23,-54.15,-2252.88,-14620.72,23153.36,-879.48,22794.18,32890.04
398,0.0,0.177,0.771,1.0,1.0,-15.62,-55.55,-3616.88,-14840.72,20921.36,-4709.48,23152.18,32890.04
419,0.08,0.107,1.0,0.346,1.0,-13.1,-57.31,-4560.88,-15516.72,19669.36,-6461.48,22813.18,32890.04
439,0.004,0.269,1.0,0.0,1.0,-10.62,-58.7,-5420.88,-14116.72,18101.36,-3838.48,23447.18,32890.04
459,0.0,0.0,0.72,1.0,0.0,-8.08,-59.47,-6716.88,-10896.72,17081.36,-573.48,24594.18,32890.04
478,0.0,0.185,1.0,0.606,0.088,-5.03,-60.15,-9488.88,-9220.72,15853.36,327.52,26360.18,32890.04
498,0.0,1.0,1.0,0.662,1.0,-1.84,-60.91,-11532.88,-7848.72,15433.36,-770.48,26017.18,32890.04
518,0.0,1.0,0.0,0.941,0.0,1.36,-61.43,-13504.88,-6596.72,15525.36,-429.48,24444.18,32890.04
538,0.0,0.0,1.0,0.0,0.251,4.61,-61.42,-14784.88,-3476.72,14365.36,2369.52,23213.18,32890.04
558,0.014,0.192,1.0,0.113,0.739,8.12,-61.34,-15408.88,-1420.72,12537.36,4298.52,23625.18,32890.04
578,0.212,0.664,1.0,0.69,0.0,11.9,-61.64,-16148.88,-620.72,11525.36,3254.52,24363.18,32890.04
598,0.412,0.361,1.0,0.801,0.153,15.63,-61.45,-17140.88,343.28,12761.36,2293.52,22892.18,32890.04
618,0.395,0.453,1.0,0.532,1.0,19.38,-60.79,-17704.88,2591.28,11945.36,3734.52,19758.18,32890.04
638,0.461,1.0,1.0,1.0,0.674,23.48,-59.7,-16888.88,5579.28,10257.36,3503.52,16457.18,29882.04
658,0.329,0.883,0.0,0.355,1.0,27.52,-63.08,-16704.88,5327.28,7401.36,-939.48,15887.18,25778.04
678,0.467,0.735,0.189,0.606,1.0,31.62,-68.21,-17812.88,5787.28,6809.36,-6669.48,14951.18,22236.04
698,0.56,0.643,1.0,1.0,0.0,36.47,-70.65,-18700.88,7283.28,8201.36,-7387.48,13721.18,20360.04
719,0.129,0.432,0.0,1.0,1.0,40.65,-60.45,-19052.88,8227.28,7941.36,-3470.48,10783.18,20059.04
738,0.424,1.0,1.0,0.811,1.0,43.31,-49.69,-19984.88,10603.28,6589.36,255.52,9210.18,19077.04
758,0.533,0.813,0.594,0.727,0.577,44.79,-39.03,-18868.88,12091.28,4997.36,-779.48,8720.18,17270.04
778,1.0,0.671,0.543,0.327,1.0,46.88,-47.53,-18552.88,7407.28,5145.36,-3868.48,7774.18,15446.04
798,0.77,0.516,0.0,1.0,1.0,47.79,-37.21,-17668.88,10995.28,6201.36,-351.48,4150.18,13760.04
818,0.727,0.608,0.0,1.0,1.0,48.19,-27.85,-17460.88,12043.28,6929.36,2148.52,3300.18,12413.04
838,0.768,0.41,0.0,1.0,1.0,47.5,-19.49,-15064.88,11579.28,7637.36,1225.52,1288.18,11894.04
858,0.896,0.008,0.796,1.0,1.0,44.67,-11.6,-12312.88,10199.28,7877.36,830.52,-175.82,10184.04
878,0.98,0.022,1.0,1.0,0.153,37.92,-2.03,-9532.88,8907.28,7061.36,-528.48,-1606.82,7449.04
898,0.673,0.989,0.416,1.0,1.0,32.55,8.0,-10676.88,8659.28,6433.36,-2587.48,-3159.82,3878.04
918,0.805,0.735,0.189,1.0,0.316,31.19,-2.45,-12648.88,7655.28,7273.36,-4747.48,-5656.82,1471.04
938,0.607,0.566,0.0,0.783,0.837,29.72,-8.5,-12828.88,6851.28,7881.36,-5675.48,-9764.82,873.04
958,0.752,0.53,1.0,1.0,1.0,27.0,-14.77,-12744.88,6471.28,7449.36,-3742.48,-13055.82,216.04
978,0.898,1.0,0.594,1.0,1.0,27.11,-6.89,-17496.88,9315.28,7749.36,-83.48,-14862.82,-2157.96
999,0.838,0.636,0.0,0.634,1.0,27.04,-0.04,-23524.88,12255.28,8497.36,2782.52,-14468.82,-5332.96
1018,0.737,0.799,0.0,1.0,0.967,26.6,7.46,-25288.88,17103.28,6193.36,2599.52,-11501.82,-11889.96
1039,0.587,0.89,0.29,1.0,0.381,27.35,12.47,-33176.88,18679.28,9617.36,-4348.48,-7081.82,-18927.96
1058,1.0,0.94,1.0,1.0,1.0,28.77,16.37,-37184.88,17899.28,10461.36,-8484.48,-4460.82,-21251.96
1079,1.0,0.784,0.822,1.0,1.0,30.72,19.52,-42060.88,17275.28,12733.36,-7282.48,-1841.82,-21780.96
1099,0.671,0.213,0.0,1.0,1.0,32.72,22.37,-44860.88,15683.28,15385.36,-1658.48,-1496.82,-18295.96
1119,0.89,0.326,0.0,1.0,1.0,34.7,26.36,-44860.88,15887.28,14181.36,4904.52,-1545.82,-14395.96
1138,1.0,0.643,0.0,1.0,0.707,36.95,30.24,-42460.88,15631.28,12521.36,2462.52,589.18,-12446.96
1159,0.989,0.199,0.0,1.0,1.0,39.54,30.18,-41132.88,9723.28,14185.36,-6262.48,1839.18,-9924.96
1179,0.939,0.107,1.0,1.0,1.0,42.1,29.02,-38320.88,6747.28,13073.36,-1970.48,1811.18,-5255.96
1198,0.902,0.601,1.0,1.0,0.0,44.32,28.95,-33668.88,7823.28,11241.36,262.52,-920.82,-344.96
1218,0.931,0.777,0.0,0.857,1.0,46.66,30.98,-29956.88,8447.28,9213.36,2102.52,-1049.82,1442.04
1238,1.0,0.502,0.0,1.0,1.0,48.71,37.72,-28260.88,9935.28,6993.36,2290.52,-583.82,1536.04
1258,0.504,1.0,0.0,1.0,1.0,50.57,41.49,-26352.88,9243.28,8301.36,-2971.48,-2396.82,1463.04
1278,0.826,1.0,1.0,0.179,1.0,52.46,43.19,-25372.88,8483.28,8733.36,-3522.48,-2426.82,811.04
1298,0.799,0.058,0.543,1.0,0.967,54.23,44.85,-25644.88,8423.28,8769.36,-1565.48,-2793.82,715.04
1318,0.873,0.396,1.0,1.0,1.0,55.68,46.22,-24964.88,8671.28,9205.36,-385.48,-3684.82,648.04
1338,0.908,0.707,0.594,0.829,1.0,56.77,47.37,-25412.88,9323.28,10201.36,92.52,-3917.82,52.04
1358,0.865,1.0,0.0,0.0,0.0,57.86,48.23,-26096.88,9479.28,10633.36,-355.48,-3188.82,-703.96
1379,0.84,0.679,1.0,0.932,1.0,58.96,48.0,-26800.88,8971.28,11577.36,-1561.48,-2144.82,-1579.96
1399,0.785,0.869,0.0,1.0,0.0,60.16,46.84,-27392.88,8007.28,11925.36,-1898.48,-1174.82,-2061.96
1419,0.853,1.0,1.0,0.0,0.446,61.45,45.56,-27920.88,7703.28,11989.36,-1051.48,-249.82,-2300.96
1438,0.838,1.0,0.0,0.0,1.0,62.82,44.74,-28444.88,8107.28,12025.36,-405.48,584.18,-2498.96
1458,0.873,0.29,0.315,0.941,0.0,64.21,44.3,-28688.88,8635.28,11985.36,-784.48,1090.18,-2322.96
1479,0.822,0.361,1.0,0.625,0.0,65.7,42.92,-28812.88,7699.28,11369.36,-1953.48,1377.18,-1698.96
1499,0.886,1.0,1.0,0.839,0.0,67.15,40.5,-28912.88,6719.28,11125.36,-2623.48,1449.18,-1307.96
1518,0.801,0.206,1.0,0.857,0.0,68.54,38.0,-28756.88,6415.28,10973.36,-1274.48,1452.18,-677.96
1538,0.692,0.671,0.0,0.011,0.414,69.81,36.78,-28632.88,7367.28,11245.36,109.52,1176.18,-43.96
1558,0.77,0.862,1.0,1.0,1.0,70.98,35.64,-28368.88,7523.28,11169.36,-557.48,766.18,372.04
1578,0.556,0.389,1.0,1.0,0.0,71.98,33.92,-28036.88,7027.28,11241.36,-1428.48,301.18,613.04
1598,0.537,0.432,1.0,1.0,0.0,72.76,32.27,-27932.88,6795.28,11705.36,-631.48,-184.82,1045.04
1618,0.733,0.996,0.0,1.0,1.0,73.48,31.43,-27552.88,7455.28,11697.36,938.52,-477.82,1269.04
1638,0.486,0.827,0.0,1.0,0.739,74.11,31.63,-27364.88,8591.28,11857.36,1523.52,-386.82,1043.04
1658,0.527,0.834,1.0,1.0,0.642,74.82,31.99,-27156.88,8931.28,11317.36,-27.48,-85.82,320.04
1678,0.568,0.608,1.0,0.987,1.0,75.64,31.34,-27344.88,8183.28,11077.36,-2421.48,254.18,-429.96
1698,0.537,0.53,1.0,1.0,1.0,76.38,29.91,-27768.88,7427.28,11365.36,-2720.48,225.18,-691.96
1718,0.49,0.799,0.0,0.82,0.0,76.99,28.54,-27948.88,7063.28,11397.36,-390.48,-370.82,-283.96
1738,0.541,0.982,0.999,0.0,1.0,77.57,28.55,-27696.88,8115.28,11185.36,2059.52,-622.82,-19.96
1758,0.62,0.481,1.0,0.662,1.0,78.19,29.04,-27748.88,8651.28,10937.36,1486.52,-295.82,-111.96
1778,0.568,0.368,0.0,1.0,1.0,78.84,28.89,-27964.88,8331.28,11001.36,-324.48,57.18,-360.96
1798,0.636,0.326,0.999,1.0,1.0,79.47,27.95,-28088.88,7647.28,11057.36,-948.48,94.18,-281.96
1818,0.595,0.982,0.315,1.0,1.0,80.05,27.15,-28052.88,7611.28,10941.36,217.52,-107.82,38.04
1838,0.525,0.333,0.948,1.0,1.0,80.64,27.33,-27924.88,8339.28,10757.36,1244.52,-13.82,169.04
1858,0.589,0.926,1.0,0.839,0.0,81.24,27.44,-27876.88,8391.28,10669.36,359.52,245.18,85.04
1878,0.442,0.389,0.0,0.699,1.0,81.85,26.68,-27916.88,7783.28,10641.36,-714.48,345.18,83.04
1898,0.768,0.65,0.0,1.0,1.0,82.4,25.71,-28016.88,7571.28,10985.36,-728.48,512.18,157.04
1918,0.506,0.552,1.0,0.513,1.0,82.89,25.07,-28108.88,7759.28,11105.36,34.52,534.18,359.04
1938,0.409,0.608,0.0,1.0,0.674,83.29,25.0,-27992.88,8251.28,11265.36,737.52,335.18,494.04
1958,0.75,0.791,0.0,0.0,1.0,83.71,25.03,-27892.88,8351.28,10929.36,386.52,219.18,515.04
1978,0.486,0.897,1.0,0.653,0.0,84.16,24.76,-27552.88,8139.28,10605.36,-481.48,289.18,308.04
1998,0.477,0.77,1.0,1.0,1.0,84.58,24.31,-27624.88,8047.28,10869.36,-735.48,566.18,61.04
2018,0.694,1.0,1.0,0.337,1.0,84.93,23.66,-27612.88,7791.28,11049.36,-330.48,405.18,62.04
2038,0.663,0.855,0.518,1.0,1.0,85.16,23.59,-27644.88,8271.28,11245.36,562.52,59.18,174.04
2058,0.706,0.643,0.0,1.0,1.0,85.37,23.44,-27388.88,8203.28,11025.36,304.52,-139.82,60.04
2078,0.601,0.029,0.011,0.867,0.0,85.59,22.85,-27396.88,7855.28,10981.36,-348.48,-153.82,-171.96
2098,0.399,0.58,1.0,0.932,0.0,85.79,22.23,-27660.88,7783.28,11161.36,-108.48,58.18,-386.96
2118,0.298,1.0,1.0,1.0,1.0,85.98,21.71,-27940.88,7791.28,11265.36,412.52,117.18,-374.96
2138,0.467,0.544,1.0,0.746,0.674,86.14,21.39,-28104.88,7959.28,11257.36,652.52,-7.82,-263.96
2158,0.527,1.0,0.0,0.922,0.0,86.31,21.47,-27868.88,8363.28,10941.36,495.52,-126.82,-177.96
2178,0.622,0.537,1.0,0.801,0.609,86.48,20.95,-27908.88,7883.28,10921.36,-311.48,-90.82,-212.96
2198,0.607,1.0,1.0,1.0,1.0,86.67,20.34,-27984.88,7787.28,10841.36,-269.48,-38.82,-203.96
2218,0.892,0.192,1.0,0.467,1.0,86.85,19.79,-27972.88,7779.28,10969.36,60.52,176.18,-203.96
2238,0.937,1.0,1.0,1.0,1.0,87.05,19.41,-27956.88,7915.28,10825.36,197.52,280.18,-143.96
2258,0.521,0.446,1.0,1.0,1.0,87.23,19.16,-28008.88,8055.28,10909.36,56.52,337.18,-184.96
2278,0.733,0.989,0.0,0.476,1.0,87.41,18.87,-27864.88,8047.28,10725.36,-307.48,251.18,-193.96
2298,0.397,0.813,1.0,0.82,0.414,87.57,18.23,-27768.88,7787.28,10689.36,-805.48,183.18,-248.96
2318,0.622,1.0,0.0,1.0,1.0,87.67,17.48,-27788.88,7623.28,10869.36,-479.48,50.18,-144.96
2338,0.708,0.544,1.0,1.0,1.0,87.72,17.18,-27792.88,7943.28,10929.36,197.52,-104.82,-3.96
2358,0.684,0.742,1.0,0.848,0.153,87.79,17.15,-27676.88,8175.28,10733.36,185.52,-124.82,-98.96
2378,0.554,0.53,0.796,1.0,0.283,87.83,17.06,-27708.88,8195.28,10813.36,-213.48,-127.82,-317.96
2398,0.667,0.679,0.0,1.0,1.0,87.87,16.53,-27780.88,7815.28,10949.36,-414.48,-24.82,-446.96
2418,0.857,1.0,0.0,0.43,1.0,87.84,16.01,-28020.88,7783.28,11389.36,-245.48,103.18,-400.96
2438,0.513,0.1,1.0,0.978,0.0,87.85,15.43,-27992.88,7671.28,11193.36,24.52,137.18,-253.96
2458,0.42,0.305,1.0,0.997,1.0,87.89,14.95,-27764.88,7755.28,11029.36,-26.48,233.18,-257.96
2478,0.541,0.848,1.0,1.0,1.0,87.92,14.44,-27924.88,7783.28,11133.36,-426.48,371.18,-277.96
2498,0.69,0.537,0.847,0.764,1.0,88.01,13.97,-27960.88,7871.28,10821.36,-930.48,471.18,-406.96
2518,0.785,0.502,1.0,0.625,0.0,88.1,13.2,-27900.88,7651.28,10781.36,-1495.48,440.18,-510.96
2538,0.562,0.841,1.0,1.0,0.0,88.15,12.35,-27936.88,7539.28,10745.36,-1397.48,246.18,-468.96
2558,0.651,0.297,0.847,0.792,0.0,88.14,11.48,-27836.88,7415.28,10781.36,-795.48,-45.82,-322.96
2578,0.405,1.0,0.0,0.0,0.153,88.09,11.07,-27704.88,7695.28,10645.36,134.52,-417.82,-104.96
2598,0.653,1.0,0.923,1.0,1.0,88.01,10.86,-27740.88,7819.28,10737.36,500.52,-499.82,-152.96
2618,0.49,0.799,1.0,0.662,0.0,87.91,10.64,-27744.88,7875.28,10921.36,67.52,-387.82,-311.96
2638,0.447,0.791,0.0,0.811,0.0,87.82,10.05,-27968.88,7583.28,11021.36,-489.48,-237.82,-429.96
2658,0.508,0.904,0.0,0.69,1.0,87.71,9.36,-28052.88,7423.28,11169.36,-374.48,-181.82,-370.96
2678,0.537,0.53,0.0,1.0,1.0,87.64,8.81,-28056.88,7499.28,11025.36,34.52,-131.82,-231.96
2698,0.545,0.0,1.0,0.839,1.0,87.56,8.15,-28096.88,7379.28,11113.36,-97.48,-23.82,-104.96
2718,0.607,0.0,1.0,0.0,1.0,87.49,7.56,-28092.88,7455.28,11029.36,-149.48,-42.82,23.04
2738,0.504,0.375,0.0,0.504,1.0,87.44,7.08,-27968.88,7603.28,10909.36,-506.48,16.18,38.04
2758,0.764,1.0,1.0,0.309,0.0,87.42,6.57,-27956.88,7611.28,10821.36,-801.48,86.18,96.04
2778,0.803,0.643,1.0,0.16,1.0,87.37,5.45,-27996.88,6967.28,10917.36,-857.48,171.18,196.04
2798,0.797,0.0,0.416,0.839,0.0,87.3,4.64,-27908.88,7215.28,10837.36,-480.48,-87.82,351.04
2818,0.442,1.0,0.594,1.0,0.0,87.22,4.53,-27764.88,7779.28,11005.36,217.52,88.18,254.04
2838,0.595,0.841,0.0,0.922,0.0,87.17,4.28,-27828.88,7691.28,11077.36,-164.48,299.18,17.04
2858,0.589,0.439,0.29,1.0,0.0,87.09,4.07,-27772.88,7783.28,11141.36,-567.48,282.18,-120.96
2878,0.762,0.615,1.0,0.792,1.0,87.03,3.73,-27800.88,7695.28,10941.36,-926.48,186.18,-162.96
2898,0.354,0.559,0.0,0.234,1.0,86.98,3.1,-27720.88,7419.28,10777.36,-990.48,60.18,-199.96
2918,0.667,0.735,1.0,0.867,0.707,86.86,2.62,-27684.88,7379.28,10973.36,-65.48,-105.82,-56.96
2938,0.473,0.319,0.0,0.188,1.0,86.75,2.68,-27744.88,7835.28,10909.36,578.52,-111.82,-14.96
2958,0.541,0.996,0.973,0.374,1.0,86.65,2.47,-27732.88,7667.28,10909.36,-161.48,-140.82,-74.96
2978,0.71,0.333,1.0,0.801,1.0,86.55,2.11,-27732.88,7563.28,10913.36,-568.48,-47.82,-179.96
