timestamp,flex_1,flex_2,flex_3,flex_4,flex_5,kalman_pitch,kalman_roll,acc_x,acc_y,acc_z,gyro_x,gyro_y,gyro_z
0,1.0,0.169,0.827,0.0,0.692,11.53,56.59,2940.16,4906.72,15424.4,917.18,1511.8,-423.08
19,1.0,0.18,0.0,0.0,0.692,-7.97,37.67,2416.16,5394.72,15908.4,-643.82,1906.8,-1144.08
39,1.0,0.267,0.827,0.0,0.0,-17.21,26.24,1420.16,3970.72,16124.4,-1132.82,467.8,-699.08
59,1.0,0.224,1.0,0.0,0.0,-23.6,19.38,2088.16,3962.72,15744.4,608.18,-1037.2,495.92
79,1.0,0.234,0.827,0.0,0.692,-28.96,15.44,3316.16,4470.72,14512.4,3475.18,-96.2,460.92
99,1.0,0.115,0.442,0.0,0.692,-32.52,13.47,3412.16,5694.72,14992.4,2592.18,1733.8,-910.08
119,1.0,0.136,0.442,0.0,0.692,-34.36,11.53,2064.16,5838.72,16380.4,-992.82,2016.8,-2093.08
139,1.0,0.18,0.0,0.0,0.692,-35.91,9.4,1600.16,5902.72,16640.4,-5217.82,-48.2,-3177.08
159,1.0,0.125,1.0,0.0,0.0,-38.03,6.36,2392.16,4134.72,15188.4,-7045.82,-1578.2,-2382.08
179,1.0,0.158,0.827,0.0,0.0,-39.55,3.61,1808.16,2910.72,16784.4,-4426.82,-3490.2,-1675.08
199,1.0,0.158,0.0,0.0,0.0,-40.96,1.84,1128.16,3486.72,17036.4,-1573.82,-5207.2,-999.08
219,1.0,0.115,1.0,0.0,0.692,-42.08,0.87,1188.16,4110.72,17820.4,731.18,-4840.2,1108.92
239,1.0,0.18,0.827,0.0,0.0,-43.53,0.4,2124.16,5050.72,18020.4,1297.18,-6620.2,1913.92
259,1.0,0.136,0.058,0.0,0.0,-44.67,0.33,3924.16,5278.72,18476.4,3316.18,-3340.2,3922.92
279,1.0,0.191,0.827,0.0,0.0,-44.99,-0.29,3180.16,3202.72,18936.4,3765.18,332.8,4399.92
299,1.0,0.725,0.827,0.0,0.0,-44.86,-0.61,3764.16,3790.72,19956.4,4082.18,3260.8,4262.92
319,1.0,0.202,0.058,0.016,0.692,-44.12,-0.86,3512.16,3934.72,21180.4,3966.18,6277.8,2716.92
339,1.0,0.256,0.827,0.0,0.0,-43.44,-0.21,4948.16,7270.72,21256.4,4788.18,7573.8,912.92
359,1.0,0.202,0.442,1.0,0.692,-41.95,0.31,3596.16,6106.72,22708.4,6152.18,11360.8,1074.92
379,1.0,0.245,0.442,1.0,0.692,-40.18,0.79,4004.16,5878.72,22448.4,6407.18,14616.8,630.92
399,1.0,0.518,0.827,1.0,0.692,-37.9,1.11,3732.16,6510.72,23148.4,4675.18,18209.8,-568.08
419,1.0,1.0,0.0,1.0,0.0,-35.41,1.08,3348.16,4962.72,24940.4,4445.18,19371.8,-1999.08
439,1.0,0.9,0.827,1.0,0.0,-32.91,1.54,3376.16,6246.72,23696.4,6263.18,21181.8,-2838.08
459,1.0,0.54,0.827,1.0,0.692,-29.95,2.29,3860.16,6094.72,24112.4,8650.18,25665.8,-3147.08
479,1.0,0.344,1.0,1.0,0.692,-26.42,3.17,3268.16,5890.72,24928.4,10205.18,29973.8,-4697.08
499,1.0,0.158,1.0,1.0,0.0,-22.47,3.98,436.16,5502.72,25936.4,10514.18,31495.8,-5290.08
519,1.0,0.0,1.0,1.0,0.0,-18.51,4.74,-859.84,2658.72,27244.4,13466.18,31495.8,-5942.08
539,1.0,0.071,1.0,1.0,1.0,-14.85,6.63,-951.84,8930.72,25608.4,15081.18,31495.8,-5359.08
559,1.0,0.104,0.827,1.0,0.0,-11.32,7.96,-2499.84,6422.72,23644.4,14480.18,31495.8,-4752.08
579,1.0,0.213,0.827,1.0,0.0,-7.64,9.08,-4999.84,5942.72,23000.4,14131.18,31495.8,-4240.08
599,1.0,0.147,1.0,1.0,0.692,-3.81,10.19,-7235.84,5830.72,22340.4,14676.18,31495.8,-1940.08
619,1.0,0.093,0.0,0.443,0.0,0.04,11.98,-8703.84,7398.72,20860.4,17674.18,31495.8,286.92
639,1.0,0.06,0.827,0.445,0.692,3.81,14.59,-9491.84,10034.72,17508.4,19153.18,31495.8,1651.92
659,1.0,0.06,0.058,0.005,0.0,7.32,16.69,-9431.84,7878.72,14844.4,18836.18,31495.8,2664.92
679,1.0,0.18,0.0,0.064,0.692,11.35,18.34,-13171.84,7110.72,15344.4,18400.18,29151.8,2375.92
699,1.0,0.234,0.827,0.092,0.692,14.59,20.9,-12611.84,10286.72,13976.4,18392.18,26253.8,1367.92
719,1.0,0.158,0.827,0.037,0.894,17.51,23.44,-13443.84,10346.72,11472.4,16028.18,22081.8,442.92
739,1.0,0.104,0.0,0.0,0.692,20.13,25.81,-13887.84,10650.72,10600.4,13756.18,19743.8,-44.08
760,1.0,0.104,0.442,0.0,0.692,22.44,28.12,-14687.84,11266.72,10404.4,12593.18,17142.8,-354.08
779,1.0,0.169,0.827,0.0,0.0,24.69,30.33,-15999.84,10934.72,9924.4,12468.18,14450.8,156.92
799,1.0,0.136,1.0,0.0,0.692,26.4,33.2,-15535.84,12238.72,8740.4,12949.18,12718.8,-402.08
819,1.0,0.082,0.442,0.0,0.0,27.75,35.98,-15719.84,13298.72,9016.4,12441.18,11638.8,-937.08
839,1.0,0.049,0.0,0.0,0.0,28.77,38.48,-15983.84,14838.72,9564.4,10681.18,11010.8,-1170.08
859,1.0,0.093,1.0,0.0,0.0,29.94,40.81,-17111.84,13726.72,8040.4,8466.18,9051.8,-944.08
879,1.0,0.158,1.0,0.0,0.0,31.05,42.92,-18019.84,13778.72,8076.4,7679.18,7724.8,-261.08
899,1.0,0.071,0.058,0.0,0.0,32.02,45.3,-17751.84,13366.72,6656.4,7218.18,6404.8,-222.08
919,1.0,0.104,1.0,0.0,0.692,32.68,47.53,-17607.84,14358.72,7460.4,7910.18,6155.8,-702.08
939,1.0,0.245,1.0,0.0,0.692,33.21,49.5,-17899.84,15770.72,7648.4,6258.18,6568.8,-1222.08
959,1.0,0.115,0.0,0.0,0.0,34.0,50.93,-18915.84,15070.72,7560.4,3401.18,6600.8,-1474.08
979,0.991,0.115,0.827,0.0,0.692,34.77,52.34,-19383.84,14950.72,7132.4,2813.18,5835.8,-1517.08
999,0.991,0.093,0.0,0.0,0.692,35.59,54.25,-19639.84,14298.72,5576.4,3553.18,4984.8,-1656.08
1019,0.991,0.202,0.827,0.0,0.692,36.21,56.08,-19591.84,15022.72,6228.4,4657.18,4794.8,-1884.08
1039,0.991,0.104,0.827,0.0,0.0,36.56,57.81,-19523.84,16202.72,6348.4,4268.18,4483.8,-2423.08
1059,0.991,0.125,0.058,0.0,0.692,36.96,59.14,-19403.84,15702.72,5992.4,1502.18,4513.8,-2751.08
1079,1.0,0.136,1.0,0.0,0.0,37.74,60.29,-20303.84,14154.72,5436.4,-75.82,4388.8,-2846.08
1099,1.0,0.147,0.827,0.0,0.692,38.48,61.56,-20287.84,13546.72,5600.4,1673.18,3658.8,-2229.08
1119,1.0,0.158,0.827,0.0,0.692,39.13,63.15,-20115.84,13402.72,5396.4,3758.18,3148.8,-1484.08
1139,1.0,0.191,1.0,0.0,0.0,39.62,64.66,-19875.84,14274.72,5708.4,4171.18,3621.8,-1372.08
1159,0.991,0.147,0.0,0.0,0.692,40.16,66.14,-20027.84,14186.72,4556.4,1633.18,3680.8,-1688.08
1179,0.991,0.158,0.442,0.0,0.0,40.93,67.42,-20939.84,13578.72,4144.4,-310.82,3720.8,-1814.08
1199,0.991,0.158,0.442,0.052,0.894,41.5,68.75,-20631.84,13894.72,3808.4,-522.82,3277.8,-1450.08
1219,0.991,0.18,0.442,0.044,0.692,41.99,70.12,-20995.84,14082.72,3936.4,450.18,2743.8,-285.08
1239,0.991,0.191,0.827,0.0,0.692,42.4,71.52,-20935.84,14130.72,4264.4,1896.18,2377.8,341.92
1259,1.0,0.169,1.0,0.0,0.692,42.62,72.75,-21023.84,14942.72,4264.4,1051.18,2049.8,321.92
1279,1.0,0.125,0.827,0.0,0.0,42.87,73.77,-21555.84,14654.72,4276.4,4.18,1441.8,326.92
1299,1.0,0.125,0.827,0.0,0.692,42.95,74.95,-20995.84,14958.72,3676.4,37.18,1135.8,35.92
1319,0.991,0.136,0.442,0.0,0.0,43.09,75.99,-21495.84,15154.72,3760.4,-449.82,1376.8,-426.08
1339,0.991,0.115,0.442,0.0,0.0,43.13,76.92,-21471.84,15318.72,4140.4,-12.82,792.8,-600.08
1359,0.991,0.136,0.442,0.0,0.0,43.16,77.91,-21735.84,15198.72,3960.4,211.18,378.8,-536.08
1379,0.991,0.104,0.827,0.0,0.692,43.13,78.86,-21671.84,15038.72,3876.4,105.18,-156.2,-541.08
1399,1.0,0.125,0.827,0.0,0.692,43.02,79.79,-21331.84,15334.72,3664.4,-232.82,-184.2,-705.08
1419,0.991,0.093,0.058,0.0,0.0,42.86,80.56,-21327.84,15386.72,4176.4,-21.82,-504.2,-814.08
1439,1.0,0.104,0.0,0.0,0.0,42.77,81.15,-21439.84,15430.72,4444.4,-486.82,-233.2,-903.08
1459,0.991,0.027,0.0,0.0,0.0,42.71,81.61,-21651.84,15166.72,4536.4,-969.82,-528.2,-893.08
1479,1.0,0.093,0.0,0.0,0.0,42.74,82.07,-21747.84,14666.72,4376.4,-1106.82,-633.2,-752.08
1499,0.991,0.18,0.827,0.0,0.692,42.75,82.38,-21751.84,14686.72,4884.4,-955.82,-684.2,-454.08
1519,0.991,0.125,0.0,0.0,0.0,42.77,82.7,-21799.84,14654.72,4992.4,-569.82,-814.2,36.92
1539,0.991,0.18,0.827,0.0,0.692,42.74,83.09,-21799.84,15126.72,5000.4,17.18,-683.2,478.92
1559,0.991,0.136,0.0,0.0,0.0,42.71,83.39,-22023.84,15290.72,5316.4,82.18,-693.2,737.92
1579,0.991,0.104,0.827,0.0,0.0,42.7,83.64,-22119.84,15750.72,5264.4,-337.82,-297.2,456.92
1599,0.991,0.071,1.0,0.0,0.692,42.76,83.84,-22143.84,15386.72,5108.4,-774.82,-218.2,222.92
1619,0.991,0.267,0.827,0.0,0.793,42.8,84.02,-22171.84,15826.72,5420.4,-405.82,37.8,-111.08
1639,0.991,0.147,0.827,0.0,0.0,42.84,84.14,-22451.84,16022.72,5356.4,-903.82,-37.2,-321.08
1659,0.991,0.06,0.0,0.0,0.0,42.92,84.28,-22115.84,15402.72,5296.4,-627.82,-56.2,-420.08
1679,0.991,0.18,1.0,0.0,0.692,43.08,84.61,-22267.84,15170.72,4880.4,-124.82,38.8,-405.08
1699,1.0,0.18,0.827,0.0,0.0,43.18,84.93,-22063.84,15518.72,5076.4,299.18,148.8,-484.08
1719,1.0,0.027,1.0,0.0,0.692,43.31,85.19,-22195.84,15438.72,5236.4,287.18,193.8,-428.08
1739,0.991,0.18,0.0,0.0,0.692,43.49,85.42,-22255.84,15198.72,4960.4,-295.82,286.8,-557.08
1759,0.991,0.06,0.0,0.0,0.692,43.68,85.54,-22051.84,15294.72,5112.4,-681.82,600.8,-730.08
1779,0.991,0.191,0.058,0.0,0.0,43.99,85.55,-22159.84,14834.72,5132.4,-1262.82,871.8,-502.08
1799,0.991,0.169,0.827,0.0,0.0,44.27,85.56,-22335.84,14550.72,5372.4,-688.82,425.8,-308.08
1819,1.0,0.158,1.0,0.0,0.0,44.47,85.82,-22235.84,14742.72,5064.4,378.18,119.8,80.92
1839,0.991,0.071,0.0,0.0,0.0,44.64,86.12,-22015.84,14846.72,4848.4,328.18,142.8,289.92
1859,0.991,0.147,0.442,0.0,0.0,44.78,86.35,-21959.84,15170.72,5080.4,288.18,429.8,282.92
1879,0.991,0.093,0.827,0.0,0.692,44.97,86.5,-22179.84,15146.72,4968.4,-336.82,487.8,219.92
1899,0.991,0.136,0.827,0.0,0.0,45.13,86.61,-22083.84,15098.72,5032.4,-471.82,456.8,4.92
1919,0.991,0.115,0.0,0.0,0.692,45.3,86.85,-22055.84,15114.72,4616.4,-305.82,465.8,-99.08
1939,1.0,0.18,0.827,0.0,0.692,45.47,87.03,-22115.84,15106.72,4764.4,-345.82,521.8,-151.08
1959,1.0,0.136,0.058,0.0,0.692,45.61,87.15,-22271.84,15326.72,4940.4,-380.82,368.8,-223.08
1979,1.0,0.093,0.827,0.0,0.692,45.74,87.29,-22543.84,15082.72,4804.4,-426.82,-81.2,-55.08
1999,1.0,0.136,0.0,0.0,0.0,45.8,87.44,-22195.84,15302.72,4944.4,-40.82,-107.2,80.92
2019,0.991,0.115,1.0,0.0,0.0,45.88,87.6,-22115.84,15074.72,4892.4,-27.82,-109.2,105.92
2039,0.991,0.093,0.0,0.0,0.0,45.98,87.68,-22167.84,15338.72,5060.4,-186.82,220.8,26.92
2059,0.991,0.147,1.0,0.0,0.0,46.09,87.69,-22191.84,15130.72,5196.4,-308.82,109.8,-17.08
2079,1.0,0.115,0.0,0.0,0.0,46.18,87.68,-22147.84,15378.72,5304.4,-289.82,275.8,-72.08
2099,1.0,0.18,0.827,0.0,0.0,46.27,87.67,-22091.84,15366.72,5092.4,-610.82,300.8,13.92
2119,1.0,0.093,1.0,0.0,0.0,46.46,87.76,-22355.84,14786.72,4868.4,-356.82,187.8,-35.08
2139,1.0,0.136,0.827,0.0,0.692,46.52,87.83,-22083.84,15562.72,5240.4,192.18,320.8,-110.08
2159,1.0,0.115,0.827,0.0,0.0,46.62,87.86,-22123.84,15330.72,5116.4,-173.82,359.8,-14.08
2179,1.0,0.136,0.0,0.0,0.0,46.75,87.8,-22011.84,15262.72,5116.4,-803.82,566.8,-174.08
2199,1.0,0.125,1.0,0.0,0.0,46.9,87.74,-21871.84,14762.72,5116.4,-720.82,362.8,13.92
2219,0.991,0.104,0.827,0.0,0.692,47.03,87.92,-22287.84,14678.72,4980.4,678.18,-108.2,264.92
2239,1.0,0.18,1.0,0.0,0.0,47.09,88.15,-21883.84,15198.72,4888.4,852.18,176.8,283.92
2259,1.0,0.115,1.0,0.0,0.692,47.15,88.27,-21843.84,15034.72,5024.4,504.18,95.8,468.92
2279,0.991,0.06,1.0,0.0,0.0,47.23,88.42,-22099.84,15334.72,4880.4,424.18,265.8,333.92
2299,0.991,0.245,0.442,0.0,0.0,47.28,88.47,-22099.84,15342.72,4836.4,-288.82,106.8,193.92
2319,1.0,0.158,0.827,0.0,0.0,47.34,88.63,-21931.84,14978.72,4516.4,-75.82,-83.2,286.92
2339,1.0,0.115,0.827,0.0,0.0,47.4,88.75,-21979.84,15074.72,4852.4,339.18,-14.2,323.92
2359,1.0,0.234,0.0,0.0,1.0,47.42,88.84,-21927.84,15198.72,4888.4,266.18,-139.2,330.92
2379,0.991,0.147,0.0,0.0,0.0,47.46,88.86,-21979.84,15110.72,4988.4,16.18,-60.2,284.92
2399,1.0,0.016,0.827,0.0,0.0,47.48,88.85,-21747.84,15278.72,4872.4,-385.82,59.8,208.92
2419,1.0,0.115,0.442,0.0,0.692,47.58,88.78,-21911.84,15102.72,4996.4,-508.82,305.8,115.92
2439,1.0,0.234,0.0,0.0,0.0,47.66,88.78,-21895.84,15198.72,4976.4,-96.82,366.8,120.92
2459,1.0,0.169,0.0,0.0,0.692,47.75,88.83,-22139.84,15254.72,4972.4,223.18,266.8,58.92
2479,1.0,0.115,1.0,0.0,0.692,47.76,88.85,-21975.84,15558.72,5024.4,169.18,147.8,25.92
2499,1.0,0.224,0.827,0.0,0.692,47.78,88.89,-21995.84,15570.72,4772.4,-170.82,172.8,-92.08
2519,1.0,0.169,0.0,0.0,0.0,47.83,88.87,-22099.84,15326.72,4856.4,-420.82,89.8,-89.08
2539,1.0,0.158,1.0,0.0,0.692,47.88,88.87,-22091.84,15402.72,4780.4,-328.82,105.8,-232.08
2559,1.0,0.115,0.058,0.0,0.692,47.91,88.85,-22043.84,15310.72,4996.4,-96.82,32.8,-121.08
2579,1.0,0.147,0.442,0.0,0.692,47.94,88.86,-22079.84,15254.72,5100.4,358.18,-93.2,6.92
2599,0.991,0.169,0.0,0.0,0.0,47.98,88.9,-22167.84,15230.72,4936.4,282.18,-135.2,17.92
2619,1.0,0.125,1.0,0.0,0.0,48.02,88.85,-22011.84,15330.72,5052.4,-68.82,83.8,-109.08
2639,1.0,0.245,0.827,0.0,0.0,48.11,88.75,-22083.84,15134.72,5080.4,-373.82,253.8,-74.08
2659,1.0,0.158,0.442,0.0,0.0,48.21,88.63,-22163.84,15070.72,5176.4,-269.82,154.8,-48.08
2679,1.0,0.158,0.827,0.0,0.0,48.28,88.63,-22099.84,15082.72,4880.4,-63.82,50.8,-0.08
2699,1.0,0.147,1.0,0.0,0.0,48.35,88.66,-22071.84,15050.72,4688.4,-187.82,-9.2,-12.08
2719,0.991,0.191,1.0,0.0,0.0,48.41,88.63,-21951.84,15134.72,4932.4,-175.82,154.8,-37.08
2739,0.991,0.147,0.827,0.0,0.692,48.48,88.62,-21979.84,15066.72,4772.4,-212.82,93.8,15.92
2759,0.991,0.104,0.827,0.0,0.0,48.55,88.63,-22039.84,15146.72,4772.4,-165.82,107.8,-17.08
2779,0.991,0.191,0.0,0.0,0.0,48.56,88.65,-22067.84,15306.72,4788.4,-38.82,-76.2,-20.08
2799,1.0,0.147,0.827,0.0,0.692,48.58,88.67,-21943.84,15362.72,4684.4,-224.82,49.8,-70.08
2819,0.991,0.213,1.0,0.0,0.692,48.66,88.64,-22191.84,15114.72,4688.4,-485.82,97.8,-184.08
2839,0.991,0.245,1.0,0.0,0.692,48.69,88.59,-22035.84,15286.72,5052.4,14.18,27.8,-86.08
2859,0.991,0.224,0.827,0.0,1.0,48.69,88.59,-22199.84,15262.72,4836.4,-74.82,-298.2,-16.08
2879,0.991,0.136,0.827,0.0,0.793,48.7,88.55,-22087.84,15278.72,4800.4,-329.82,-226.2,-214.08
2899,0.991,0.147,1.0,0.0,0.0,48.69,88.5,-22023.84,15230.72,4828.4,-410.82,-298.2,-207.08
2919,0.991,0.136,0.827,0.0,0.692,48.69,88.5,-22155.84,15078.72,4940.4,191.18,-460.2,-59.08
2939,0.991,0.115,0.442,0.0,0.692,48.68,88.5,-22147.84,15214.72,5024.4,411.18,-440.2,42.92
2959,0.991,0.136,0.827,0.0,0.0,48.65,88.44,-22071.84,15198.72,5064.4,17.18,-526.2,97.92
2979,0.991,0.191,1.0,0.0,0.692,48.66,88.29,-22059.84,15078.72,5164.4,-329.82,-379.2,-9.08
