timestamp,flex_1,flex_2,flex_3,flex_4,flex_5,kalman_pitch,kalman_roll,acc_x,acc_y,acc_z,gyro_x,gyro_y,gyro_z
0,1.0,0.39,0.0,1.0,0.0,-39.08,26.63,-2166.0,-439.44,18785.6,1466.28,-1624.58,1745.38
20,1.0,0.529,0.0,1.0,0.0,-42.87,-5.06,-1870.0,-1543.44,18657.6,430.28,-2226.58,1389.38
40,1.0,1.0,1.0,1.0,1.0,-45.76,-18.27,-846.0,-1367.44,17977.6,2074.28,-2977.58,1416.38
60,1.0,0.506,0.0,1.0,0.0,-46.32,-25.26,-1490.0,-2175.44,19029.6,1694.28,-2578.58,2873.38
80,1.0,0.567,0.0,1.0,1.0,-46.01,-29.94,-1538.0,-3287.44,19809.6,1359.28,-1338.58,2398.38
100,1.0,0.314,0.0,1.0,0.13,-45.04,-32.33,-1782.0,-4015.44,22169.6,2627.28,-1123.58,1339.38
120,1.0,0.706,0.0,1.0,1.0,-44.51,-33.7,-1842.0,-3279.44,21885.6,4447.28,-895.58,612.38
140,1.0,0.636,0.0,1.0,0.0,-43.48,-34.32,-1966.0,-3379.44,24085.6,3303.28,734.42,684.38
160,1.0,0.483,0.0,1.0,1.0,-42.64,-34.67,-898.0,-2667.44,24641.6,1799.28,2772.42,1096.38
180,1.0,0.621,0.0,1.0,0.0,-41.38,-35.32,134.0,-3679.44,25641.6,174.28,6654.42,1946.38
200,1.0,0.022,1.0,1.0,0.0,-39.64,-36.54,270.0,-4163.44,25153.6,-2863.72,11591.42,2417.38
220,1.0,0.675,1.0,1.0,0.0,-37.0,-37.93,-1074.0,-6279.44,26397.6,-3160.72,15349.42,4113.38
240,1.0,0.398,1.0,1.0,1.0,-34.11,-38.65,-1330.0,-6479.44,27561.6,-220.72,17766.42,5487.38
260,1.0,0.398,0.0,1.0,0.0,-31.22,-39.09,-1166.0,-6831.44,27201.6,2198.28,19788.42,7135.38
280,1.0,0.26,1.0,1.0,0.0,-28.05,-38.79,-1478.0,-5103.44,28165.6,4090.28,23315.42,8873.38
300,1.0,0.0,0.304,1.0,0.0,-24.74,-38.72,-1558.0,-5639.44,28801.6,2884.28,25394.42,11217.38
320,1.0,0.444,0.0,1.0,0.13,-21.42,-39.55,-2518.0,-7891.44,28345.6,-611.72,25603.42,11205.38
340,1.0,0.321,0.0,1.0,0.0,-17.98,-40.02,-1970.0,-7711.44,28877.6,881.28,28549.42,14163.38
360,1.0,0.121,0.0,1.0,0.26,-14.27,-40.51,-3198.0,-6695.44,28285.6,-97.72,31530.42,15671.38
380,1.0,0.291,0.0,1.0,0.0,-10.55,-41.98,-4774.0,-8971.44,27293.6,-4166.72,31530.42,18169.38
400,1.0,0.513,0.0,1.0,1.0,-6.92,-42.63,-5918.0,-9275.44,26989.6,1358.28,31530.42,22488.38
420,1.0,0.291,0.0,1.0,0.0,-3.09,-41.07,-8302.0,-11175.44,28385.6,17114.28,31530.42,25136.38
440,1.0,0.16,0.0,1.0,1.0,0.32,-37.44,-8690.0,-5851.44,26437.6,29148.28,31530.42,25943.38
460,1.0,0.314,0.0,1.0,0.0,3.52,-34.03,-9630.0,-3367.44,25121.6,27541.28,31530.42,22649.38
480,1.0,0.352,0.696,1.0,1.0,7.06,-31.92,-12378.0,-2875.44,25053.6,19530.28,31530.42,21782.38
500,1.0,0.636,0.108,1.0,0.13,10.11,-28.82,-11534.0,-667.44,25061.6,24366.28,31530.42,22343.38
520,1.0,0.168,0.0,0.314,0.0,13.53,-25.29,-14082.0,812.56,23741.6,27416.28,31530.42,21999.38
540,1.0,0.267,0.0,0.6,0.0,17.46,-22.19,-16202.0,4440.56,20777.6,20549.28,31530.42,19217.38
560,1.0,0.145,0.0,1.0,0.0,21.78,-20.49,-17742.0,3440.56,19381.6,15773.28,31530.42,17951.38
580,1.0,0.121,0.0,1.0,0.0,25.84,-17.82,-17178.0,5324.56,18177.6,18561.28,31530.42,18349.38
600,1.0,0.252,0.0,0.877,0.0,30.85,-14.23,-19710.0,7408.56,16521.6,17904.28,29911.42,17117.38
620,1.0,0.022,0.0,0.478,0.0,35.81,-10.44,-20174.0,8088.56,14761.6,15060.28,26563.42,15431.38
640,1.0,0.014,0.0,0.781,0.0,40.6,-6.73,-20118.0,7956.56,13689.6,13965.28,24247.42,13871.38
660,1.0,0.214,0.304,0.648,1.0,45.24,-1.34,-20666.0,9156.56,12569.6,13207.28,23658.42,12426.38
680,1.0,0.168,0.0,0.297,0.0,49.37,5.01,-22066.0,10696.56,11649.6,10656.28,23026.42,10925.38
700,1.0,0.244,0.0,0.061,0.0,53.31,11.42,-23474.0,10500.56,10861.6,8125.28,20861.42,9657.38
720,1.0,0.337,0.0,0.0,1.0,56.49,18.48,-23654.0,10532.56,10005.6,8753.28,17324.42,9263.38
740,1.0,0.052,0.0,0.061,0.0,58.69,24.96,-23842.0,12324.56,10105.6,8858.28,15433.42,8348.38
760,1.0,0.314,0.0,0.192,0.0,60.71,31.11,-25042.0,12244.56,9589.6,6263.28,13894.42,6513.38
780,1.0,0.214,0.0,0.098,0.13,62.34,37.34,-24990.0,12304.56,8657.6,4790.28,12726.42,5144.38
800,1.0,0.39,0.0,0.019,0.0,63.53,43.22,-25374.0,12612.56,8409.6,3840.28,10660.42,4368.38
820,1.0,0.26,1.0,0.01,0.0,64.15,48.74,-25578.0,13260.56,8237.6,3462.28,8261.42,3928.38
840,1.0,0.0,0.304,0.0,0.0,64.33,54.15,-25438.0,13304.56,7557.6,2361.28,6179.42,3195.38
860,1.0,0.145,0.0,0.0,0.0,64.31,59.16,-25346.0,13444.56,7409.6,1012.28,5303.42,2230.38
880,1.0,0.337,0.0,0.053,0.0,64.33,63.54,-26182.0,13520.56,7989.6,291.28,4600.42,1761.38
900,1.0,0.022,0.0,0.07,0.0,64.31,67.72,-26750.0,13320.56,8185.6,835.28,3405.42,1706.38
920,1.0,0.129,0.0,0.101,0.0,64.1,71.39,-26966.0,13704.56,8837.6,1353.28,2186.42,1489.38
940,1.0,0.183,0.0,0.0,1.0,63.66,74.59,-27122.0,14216.56,9001.6,351.28,1130.42,1012.38
960,1.0,0.121,0.0,0.11,0.0,63.29,77.57,-27070.0,13920.56,8725.6,-1151.72,1137.42,220.38
980,1.0,0.337,0.0,0.112,0.0,63.12,80.61,-27394.0,13332.56,8493.6,-1064.72,1339.42,-28.62
1000,1.0,0.398,1.0,0.0,0.0,62.84,83.2,-27734.0,14176.56,9081.6,-342.72,1303.42,92.38
1020,1.0,0.152,0.0,0.101,1.0,62.53,85.51,-28294.0,14216.56,9505.6,124.28,416.42,590.38
1039,1.0,0.229,1.0,0.101,0.0,62.09,87.86,-28042.0,14456.56,9277.6,613.28,-9.58,660.38
1060,1.0,0.0,0.0,0.013,0.0,61.65,90.08,-27646.0,14368.56,8853.6,-648.72,127.42,121.38
1080,1.0,0.275,0.0,0.025,0.0,61.39,92.04,-27910.0,13952.56,9197.6,-862.72,342.42,16.38
1099,1.0,0.0,0.0,0.07,0.0,61.18,94.04,-27830.0,13856.56,9337.6,597.28,416.42,330.38
1120,1.0,0.145,0.0,0.056,0.39,60.92,95.87,-28118.0,14532.56,9489.6,1100.28,725.42,194.38
1139,1.0,0.46,0.0,0.0,0.0,60.68,97.53,-28642.0,14280.56,9497.6,580.28,-21.58,56.38
1159,1.0,0.406,0.0,0.07,0.0,60.38,99.25,-28006.0,14272.56,8961.6,-20.72,25.42,-71.62
1180,1.0,0.183,0.0,0.186,1.0,60.22,100.87,-28098.0,13848.56,8781.6,-815.72,334.42,-186.62
1200,1.0,0.06,1.0,0.036,0.0,60.19,102.27,-28262.0,13580.56,9441.6,203.28,487.42,148.38
1220,1.0,0.121,0.0,0.036,0.0,60.16,103.61,-28510.0,14044.56,9477.6,818.28,878.42,174.38
1240,1.0,0.145,0.0,0.064,0.909,60.04,104.93,-28526.0,14192.56,9221.6,545.28,475.42,145.38
1260,1.0,0.168,0.0,0.098,0.0,59.76,106.16,-28186.0,14500.56,8953.6,-162.72,6.42,-14.62
1280,1.0,0.26,0.304,0.002,0.0,59.54,107.4,-27774.0,13928.56,8753.6,-489.72,-110.58,-81.62
1300,1.0,0.145,0.0,0.209,0.0,59.42,108.72,-27822.0,13628.56,8989.6,1043.28,41.42,262.38
1320,1.0,0.022,0.0,0.175,0.0,59.28,109.91,-27942.0,14280.56,8921.6,1022.28,588.42,169.38
1340,1.0,0.275,0.0,0.027,0.0,59.16,110.71,-28558.0,14396.56,9269.6,-142.72,285.42,-137.62
1360,1.0,0.306,0.0,0.104,0.0,58.98,111.32,-28742.0,13944.56,9597.6,-257.72,-896.58,-79.62
1380,1.0,0.068,1.0,0.073,1.0,58.76,112.1,-27986.0,13752.56,9181.6,-219.72,-997.58,183.38
1400,1.0,0.0,0.0,0.084,0.0,58.76,112.96,-27926.0,13504.56,8869.6,-331.72,257.42,-50.62
1420,1.0,0.0,0.0,0.01,1.0,58.9,113.51,-28706.0,13752.56,9469.6,-141.72,876.42,-143.62
1439,1.0,0.137,1.0,0.095,0.0,58.86,113.82,-29022.0,14256.56,9917.6,80.28,-23.58,263.38
1460,1.0,0.429,0.304,0.025,0.0,58.77,114.36,-28770.0,13972.56,9449.6,439.28,-546.58,583.38
1480,1.0,0.152,0.0,0.027,0.0,58.66,114.96,-28162.0,14312.56,9173.6,538.28,190.42,376.38
1500,1.0,0.39,0.304,0.0,0.0,58.63,115.37,-28158.0,14388.56,9237.6,-252.72,711.42,-79.62
1520,1.0,0.152,0.0,0.076,0.0,58.71,115.86,-28422.0,13952.56,9297.6,455.28,756.42,-73.62
1540,1.0,0.052,0.0,0.095,0.0,58.63,116.44,-28398.0,14408.56,9021.6,864.28,292.42,131.38
1560,1.0,0.375,0.0,0.05,0.649,58.5,117.06,-28178.0,14276.56,8477.6,-67.72,22.42,-26.62
1580,1.0,0.244,0.0,0.0,0.0,58.46,117.66,-28146.0,13608.56,8345.6,-880.72,-75.58,-211.62
1599,1.0,0.006,0.0,0.073,0.13,58.52,118.29,-28002.0,13272.56,8733.6,476.28,65.42,98.38
1620,1.0,0.506,0.0,0.0,1.0,58.53,118.81,-28410.0,13924.56,9041.6,1382.28,181.42,460.38
1640,1.0,0.137,1.0,0.107,0.0,58.49,119.06,-28550.0,14184.56,9233.6,479.28,10.42,254.38
1660,1.0,0.314,0.0,0.104,0.0,58.4,119.12,-28234.0,14272.56,9017.6,-1123.72,-97.58,-251.62
1680,1.0,0.137,0.0,0.05,0.0,58.44,119.45,-28074.0,13392.56,8569.6,-1073.72,25.42,-291.62
1700,1.0,0.344,0.0,0.101,0.0,58.46,119.94,-28234.0,13760.56,8733.6,1014.28,186.42,440.38
1720,1.0,0.0,1.0,0.067,0.779,58.38,120.31,-28298.0,14484.56,8873.6,1325.28,139.42,640.38
1740,1.0,0.267,0.0,0.016,1.0,58.25,120.28,-28542.0,14772.56,9173.6,-314.72,-120.58,-128.62
1760,1.0,0.0,1.0,0.059,0.0,58.15,120.39,-27990.0,14004.56,8637.6,-1125.72,-333.58,-614.62
1780,1.0,0.129,0.0,0.064,0.0,58.19,120.69,-27890.0,13476.56,8585.6,-170.72,36.42,-290.62
1800,1.0,0.191,1.0,0.152,0.909,58.21,120.9,-28106.0,14008.56,9045.6,986.28,262.42,220.38
1820,1.0,0.367,0.0,0.081,0.0,58.19,120.81,-28702.0,14480.56,9441.6,432.28,26.42,123.38
1840,1.0,0.352,0.0,0.189,0.0,58.14,120.65,-28454.0,14228.56,9101.6,-1002.72,-231.58,-342.62
1860,1.0,0.214,0.304,0.005,1.0,58.17,120.76,-28054.0,13472.56,8561.6,-1059.72,-185.58,-367.62
1879,1.0,0.106,0.0,0.03,0.0,58.2,120.87,-28134.0,13724.56,8853.6,56.28,-63.58,227.38
1900,1.0,0.383,0.0,0.044,0.0,58.21,120.82,-28466.0,14016.56,9333.6,605.28,-191.58,598.38
1920,1.0,0.214,0.0,0.03,0.0,58.16,120.64,-28558.0,14408.56,9425.6,175.28,-280.58,312.38
1940,1.0,0.121,0.0,0.0,0.0,58.17,120.46,-28250.0,13992.56,9005.6,-1051.72,-82.58,-292.62
1960,1.0,0.39,0.0,0.101,0.0,58.24,120.38,-28130.0,13708.56,9045.6,-420.72,84.42,-112.62
1980,1.0,0.175,0.0,0.016,0.0,58.28,120.32,-28266.0,13968.56,9273.6,548.28,15.42,323.38
1999,1.0,0.306,0.0,0.016,1.0,58.25,120.3,-28298.0,14420.56,9105.6,775.28,17.42,294.38
2020,1.0,0.0,0.892,0.098,0.0,58.21,120.26,-28398.0,14136.56,8909.6,16.28,-372.58,-7.62
2040,1.0,0.029,0.0,0.093,0.0,58.12,120.21,-27978.0,14168.56,8709.6,-417.72,-385.58,-196.62
2060,1.0,0.198,0.0,0.101,0.0,58.14,119.99,-28042.0,13920.56,9149.6,-550.72,-137.58,-266.62
2080,1.0,0.098,0.0,0.056,0.0,58.24,119.89,-28338.0,13732.56,9245.6,411.28,-14.58,-8.62
2100,1.0,0.0,1.0,0.101,0.0,58.27,119.77,-28486.0,13884.56,9281.6,619.28,-356.58,301.38
2119,1.0,0.014,0.0,0.169,0.0,58.28,119.64,-28278.0,13912.56,9089.6,29.28,-349.58,87.38
2140,1.0,0.706,0.0,0.073,0.0,58.3,119.38,-28402.0,14104.56,9085.6,-652.72,-139.58,-229.62
2160,1.0,0.0,1.0,0.081,0.0,58.34,119.19,-28250.0,13828.56,9277.6,137.28,-337.58,71.38
2180,1.0,0.337,0.0,0.019,0.0,58.3,119.16,-28334.0,14248.56,9073.6,988.28,-402.58,387.38
2200,1.0,0.098,0.0,0.039,1.0,58.27,119.01,-28358.0,14416.56,9249.6,794.28,-246.58,186.38
2220,1.0,0.26,0.0,0.044,0.0,58.28,118.69,-28378.0,14544.56,9177.6,-432.72,196.42,-544.62
2240,1.0,0.383,1.0,0.098,0.0,58.39,118.31,-28562.0,14272.56,9185.6,-1019.72,403.42,-1050.62
2260,1.0,0.229,0.0,0.087,0.0,58.5,118.09,-28450.0,13872.56,9093.6,-363.72,157.42,-580.62
2280,1.0,0.0,1.0,0.081,0.0,58.65,118.14,-28466.0,13300.56,8925.6,703.28,-178.58,174.38
2300,1.0,0.145,0.0,0.101,0.0,58.69,118.08,-28434.0,14160.56,9113.6,1061.28,-48.58,434.38
2320,0.958,0.121,0.892,0.0,0.0,58.71,117.85,-28478.0,14088.56,9037.6,-247.72,-237.58,-43.62
2340,1.0,0.129,0.0,0.0,0.649,58.81,117.68,-28362.0,13488.56,8853.6,-682.72,-246.58,-480.62
2360,0.829,0.091,1.0,0.056,1.0,58.93,117.46,-28306.0,13516.56,9221.6,-38.72,-111.58,-100.62
2380,1.0,0.221,0.0,0.027,0.0,58.98,117.31,-28362.0,13888.56,9117.6,385.28,-199.58,430.38
2400,1.0,0.191,0.0,0.0,0.0,58.99,117.03,-28414.0,14316.56,9201.6,-0.72,-67.58,191.38
2420,1.0,0.283,0.0,0.019,0.0,59.01,116.46,-28162.0,14416.56,9509.6,-1187.72,190.42,-621.62
2440,1.0,0.252,0.0,0.093,0.0,59.25,116.0,-28034.0,13464.56,9357.6,-1368.72,803.42,-1132.62
2460,1.0,0.145,0.0,0.039,0.0,59.5,115.7,-28262.0,13780.56,9469.6,90.28,1061.42,-866.62
2480,1.0,0.229,1.0,0.121,0.0,59.62,115.43,-28206.0,14392.56,9329.6,212.28,989.42,-1094.62
2500,1.0,0.091,0.0,0.059,0.0,59.71,115.14,-28450.0,13984.56,9009.6,-904.72,279.42,-1392.62
2520,1.0,0.291,0.0,0.09,0.0,59.77,115.21,-28214.0,12928.56,8601.6,-250.72,-762.58,-500.62
2540,1.0,0.129,0.0,0.059,1.0,59.75,115.44,-27894.0,13256.56,8297.6,292.28,-677.58,264.38
2560,1.0,0.0,1.0,0.0,0.0,59.79,115.48,-28510.0,13260.56,8569.6,-73.72,-717.58,294.38
2580,1.0,0.244,0.0,0.019,0.0,59.76,115.34,-28794.0,13552.56,8997.6,-10.72,-1145.58,267.38
2600,1.0,0.229,0.0,0.067,0.0,59.77,114.99,-28694.0,13304.56,9517.6,-77.72,-1296.58,293.38
2620,1.0,0.168,1.0,0.093,0.0,59.83,114.64,-28766.0,13564.56,9709.6,518.28,-723.58,540.38
2640,1.0,0.0,0.0,0.081,1.0,59.87,114.22,-28726.0,14008.56,9977.6,869.28,-421.58,637.38
2660,1.0,0.267,0.0,0.0,0.0,59.97,113.85,-28574.0,14124.56,9721.6,530.28,204.42,187.38
2680,1.0,0.0,0.0,0.0,0.0,60.17,113.38,-28882.0,13900.56,9893.6,172.28,494.42,-191.62
2700,1.0,0.39,1.0,0.01,0.0,60.33,113.11,-28558.0,13916.56,9205.6,-220.72,537.42,-306.62
2720,1.0,0.214,1.0,0.127,0.0,60.51,112.95,-28190.0,13644.56,8805.6,-697.72,830.42,-404.62
2740,1.0,0.091,0.0,0.237,0.0,60.71,112.91,-28474.0,13576.56,8693.6,-187.72,731.42,-17.62
2760,1.0,0.022,0.0,0.11,0.0,60.79,112.83,-28458.0,13980.56,8897.6,303.28,331.42,303.38
2780,1.0,0.237,0.0,0.01,0.0,60.84,112.77,-28614.0,13948.56,8785.6,161.28,108.42,405.38
2800,1.0,0.091,0.0,0.0,0.0,60.86,112.49,-28702.0,14080.56,9197.6,-164.72,-148.58,264.38
2820,1.0,0.636,0.0,0.084,0.0,60.91,112.16,-28426.0,13888.56,9401.6,-185.72,-33.58,126.38
2840,0.958,0.145,0.0,0.127,0.0,61.02,111.93,-28490.0,13692.56,9465.6,625.28,180.42,299.38
2860,1.0,0.206,0.0,0.056,0.0,61.08,111.74,-28494.0,13944.56,9545.6,1132.28,47.42,522.38
2880,1.0,0.198,1.0,0.078,1.0,61.08,111.37,-28306.0,14284.56,9637.6,269.28,124.42,236.38
2900,1.0,0.06,0.0,0.053,0.0,61.17,110.85,-28258.0,14072.56,9545.6,-1035.72,584.42,-466.62
2920,1.0,0.0,0.0,0.036,0.0,61.4,110.62,-28230.0,13248.56,9113.6,-792.72,752.42,-494.62
2940,1.0,0.075,0.0,0.081,0.0,61.55,110.77,-28150.0,13300.56,8877.6,1224.28,500.42,402.38
2960,1.0,0.098,0.0,0.05,0.0,61.56,110.76,-28474.0,13996.56,9177.6,1394.28,-25.58,654.38
2980,1.0,0.106,0.0,0.081,0.0,61.48,110.61,-28218.0,14120.56,9045.6,278.28,-279.58,58.38
