timestamp,flex_1,flex_2,flex_3,flex_4,flex_5,kalman_pitch,kalman_roll,acc_x,acc_y,acc_z,gyro_x,gyro_y,gyro_z
0,0.716,0.0,1.0,0.0,0.069,44.67,102.25,4017.6,-20.24,10098.32,169.28,378.94,-54.94
19,0.979,0.087,0.0,0.313,0.0,13.7,55.81,4377.6,-924.24,10826.32,2165.28,1707.94,1043.06
39,0.811,0.466,0.664,0.112,0.0,-3.62,31.11,5113.6,-372.24,10298.32,5063.28,3349.94,1102.06
60,0.846,0.1,0.0,0.0,0.911,-13.84,16.1,5505.6,-908.24,11166.32,5590.28,5252.94,-1193.94
80,0.733,0.244,1.0,0.089,0.287,-18.88,6.62,1317.6,-1456.24,13978.32,1424.28,861.94,-3686.94
100,0.877,0.643,1.0,0.336,0.0,-22.47,-4.62,-814.4,-7528.24,13346.32,-10870.72,-13221.06,-3044.94
120,0.825,0.133,0.505,0.175,0.127,-27.54,-15.36,1157.6,-7888.24,10446.32,-15374.72,-22073.06,-5459.94
140,1.0,0.0,1.0,0.0,0.301,-30.98,-23.94,-70.4,-9452.24,11086.32,-13660.72,-20096.06,-6566.94
160,0.853,1.0,0.0,0.0,1.0,-31.93,-29.66,-46.4,-12644.24,15206.32,-7993.72,-8798.06,30.06
180,1.0,0.231,0.0,0.0,0.0,-31.95,-34.92,2473.6,-14268.24,11958.32,-3670.72,1390.94,4154.06
200,1.0,0.669,0.901,0.009,0.0,-30.8,-39.32,3857.6,-14352.24,13210.32,-4589.72,11356.94,7934.06
220,1.0,0.342,0.057,0.0,0.0,-28.31,-43.04,3845.6,-16792.24,17218.32,-7117.72,19193.94,11969.06
240,1.0,0.0,1.0,0.061,0.853,-26.01,-46.35,3213.6,-17784.24,18870.32,-8081.72,17936.94,17588.06
260,1.0,0.27,0.347,0.095,0.693,-24.8,-49.6,6629.6,-16756.24,16558.32,-8068.72,15551.94,22276.06
280,1.0,0.296,0.0,0.364,0.388,-24.23,-53.1,8653.6,-17480.24,15802.32,-10564.72,13026.94,26201.06
300,1.0,0.545,1.0,0.061,0.0,-24.12,-57.26,9957.6,-17328.24,14590.32,-16006.72,11206.94,28190.06
320,1.0,0.211,1.0,0.0,0.083,-23.84,-61.94,9301.6,-20608.24,15274.32,-21199.72,10228.94,29688.06
340,1.0,0.551,0.0,0.0,0.156,-23.91,-66.91,10801.6,-21672.24,14466.32,-24436.72,8543.94,32650.06
360,0.716,0.107,1.0,0.256,0.533,-24.43,-71.83,11817.6,-21920.24,12762.32,-24933.72,5989.94,32934.06
380,0.551,0.0,0.0,0.089,0.243,-25.1,-76.51,12765.6,-24104.24,11842.32,-24248.72,4436.94,32934.06
400,0.812,0.349,0.453,0.0,1.0,-25.74,-80.28,11537.6,-22420.24,11526.32,-19966.72,4309.94,32934.06
420,0.854,0.0,0.0,0.0,1.0,-26.43,-83.2,10905.6,-22012.24,11202.32,-15560.72,3469.94,32934.06
440,0.656,0.198,1.0,0.0,1.0,-27.43,-85.53,11053.6,-20996.24,10478.32,-12194.72,1669.94,32934.06
460,0.762,0.087,0.875,0.112,1.0,-28.39,-86.9,10405.6,-18292.24,10518.32,-7156.72,2237.94,32934.06
480,0.67,0.094,0.0,0.0,0.693,-28.95,-87.63,7905.6,-16080.24,10694.32,-4003.72,4177.94,32934.06
500,0.488,0.028,0.0,0.009,0.388,-29.25,-87.81,6085.6,-14088.24,11002.32,-1404.72,5455.94,32934.06
520,0.53,0.421,1.0,0.0,0.853,-29.44,-87.8,2825.6,-12792.24,10534.32,-151.72,4355.94,32934.06
540,0.413,0.0,1.0,0.0,0.0,-29.45,-87.89,-954.4,-11032.24,9566.32,-401.72,3083.94,32934.06
560,0.315,0.238,1.0,0.101,1.0,-29.4,-88.2,-2514.4,-7312.24,9042.32,-2878.72,3768.94,32934.06
580,0.203,0.009,0.0,0.347,1.0,-29.38,-89.1,-4154.4,-3220.24,7682.32,-7181.72,4491.94,32934.06
600,0.19,0.44,0.796,0.0,0.243,-28.97,-90.37,-5038.4,-2364.24,6726.32,-8553.72,6721.94,32934.06
620,0.297,0.205,0.162,0.416,0.0,-26.78,-92.26,-11086.4,-616.24,5474.32,-10838.72,3709.94,32934.06
640,0.271,0.244,0.0,0.25,0.316,-25.54,-93.85,-10382.4,-3268.24,6354.32,-10848.72,638.94,32934.06
660,0.39,0.0,0.796,0.0,0.838,-24.8,-96.11,-12290.4,-2132.24,5018.32,-13220.72,-7743.06,32934.06
680,0.238,0.61,0.0,0.0,0.388,-24.45,-98.02,-11426.4,-1596.24,3270.32,-6903.72,-8624.06,32934.06
700,0.131,1.0,1.0,0.147,1.0,-22.01,-99.31,-12402.4,2567.76,3242.32,903.28,-2926.06,32934.06
720,0.182,0.643,0.0,0.244,0.461,-18.03,-98.64,-13906.4,2747.76,4890.32,4355.28,2117.94,32934.06
740,0.381,1.0,1.0,0.364,0.0,-13.71,-97.54,-14926.4,2695.76,4898.32,7436.28,3274.94,28306.06
760,0.007,0.172,0.0,0.181,0.0,-8.34,-87.43,-15358.4,6755.76,4762.32,8389.28,320.94,27087.06
780,0.355,1.0,0.0,0.204,1.0,-4.56,-73.01,-13834.4,6839.76,3030.32,7077.28,-2849.06,27263.06
800,0.343,0.76,0.0,0.502,0.533,-2.29,-61.52,-12810.4,8187.76,2758.32,485.28,-5138.06,25467.06
820,0.28,0.46,1.0,0.387,0.388,-0.21,-51.03,-12582.4,8683.76,3034.32,594.28,-4339.06,24145.06
840,0.243,0.774,0.584,1.0,0.127,1.33,-41.5,-11390.4,9039.76,3866.32,3534.28,-1995.06,22919.06
860,0.213,0.538,1.0,0.473,0.0,3.04,-31.92,-11834.4,9947.76,3762.32,7167.28,-20.06,21995.06
880,0.392,1.0,0.347,0.445,0.185,3.55,-22.78,-10994.4,12063.76,3230.32,6521.28,-1320.06,20837.06
900,0.024,0.0,1.0,0.204,0.359,4.13,-13.17,-11014.4,9907.76,1878.32,3212.28,-2153.06,20237.06
920,0.175,1.0,0.479,1.0,1.0,2.08,-1.32,-8198.4,6523.76,2170.32,3061.28,-1810.06,18754.06
939,0.334,0.584,1.0,0.0,0.461,0.44,6.85,-6862.4,9855.76,3306.32,5391.28,2397.94,16201.06
960,0.641,1.0,1.0,0.0,1.0,-0.16,16.05,-8426.4,10275.76,-1709.68,355.28,-1085.06,12114.06
980,0.695,0.976,1.0,1.0,0.0,0.34,24.68,-12274.4,10411.76,-4685.68,-4435.72,-2833.06,5959.06
1000,0.634,0.819,1.0,0.743,0.374,1.65,32.02,-16690.4,13135.76,-1297.68,-1300.72,-6231.06,2799.06
1020,0.597,0.512,0.796,0.812,0.853,0.9,38.71,-16726.4,22099.76,-425.68,5098.28,-14607.06,-1040.94
1040,0.882,0.61,1.0,0.324,0.853,-0.74,44.63,-14630.4,30627.76,2222.32,6372.28,-16779.06,-7159.94
1060,0.53,0.27,1.0,0.858,0.0,-1.84,49.15,-17474.4,39022.76,8262.32,3174.28,-14514.06,-15267.94
1080,0.52,1.0,1.0,0.812,1.0,-2.51,51.76,-19102.4,39022.76,12710.32,-5775.72,-12985.06,-24235.94
1100,0.604,1.0,0.69,0.56,1.0,-0.46,53.65,-25286.4,30967.76,15262.32,-6268.72,-34.06,-31676.94
1120,0.607,0.754,1.0,0.755,0.0,4.41,55.4,-38234.4,17731.76,14414.32,-88.72,7809.94,-29076.94
1140,0.656,0.957,0.505,0.542,1.0,9.04,58.42,-42486.4,13719.76,11262.32,9862.28,3411.94,-18253.94
1160,0.606,0.009,0.0,1.0,0.272,13.0,62.59,-41858.4,13083.76,7366.32,11593.28,-1544.06,-8813.94
1180,0.543,0.963,1.0,1.0,0.0,16.8,67.17,-36902.4,15011.76,5298.32,9369.28,326.94,-1392.94
1200,0.712,0.643,1.0,0.823,0.693,20.83,71.86,-32362.4,15627.76,3014.32,6273.28,4849.94,3057.06
1220,0.709,0.97,0.0,0.984,0.519,24.46,76.16,-29342.4,16131.76,2866.32,5085.28,4816.94,6262.06
1240,0.509,0.434,0.0,1.0,0.0,26.96,80.62,-25314.4,16219.76,1918.32,5707.28,528.94,8590.06
1260,0.783,0.368,0.822,0.29,0.0,28.29,85.07,-20226.4,16455.76,1102.32,5670.28,-2205.06,8608.06
1280,0.655,0.551,1.0,1.0,0.853,29.59,88.92,-19358.4,17091.76,1250.32,3706.28,-565.06,6882.06
1300,0.497,0.349,0.584,1.0,0.432,31.51,92.3,-20566.4,15595.76,1494.32,1258.28,1374.94,4725.06
1320,0.558,0.643,0.927,1.0,0.0,33.48,95.89,-21214.4,13355.76,590.32,-225.72,-253.06,4159.06
1339,0.585,1.0,1.0,0.473,1.0,34.77,99.46,-20402.4,13587.76,218.32,291.28,-3201.06,4054.06
1360,0.537,0.669,1.0,0.841,0.519,35.67,102.41,-19526.4,14843.76,534.32,-784.72,-3435.06,2911.06
1380,0.483,0.0,0.796,1.0,0.853,37.43,104.42,-21002.4,13527.76,2246.32,-3489.72,-933.06,889.06
1399,0.66,0.009,0.0,0.915,0.0,39.45,105.5,-22598.4,13143.76,4146.32,-4011.72,-832.06,1.06
1420,0.606,0.342,1.0,1.0,1.0,41.02,106.38,-22298.4,13903.76,4930.32,-2665.72,-2145.06,-166.94
1440,0.432,0.323,1.0,1.0,0.0,42.51,106.98,-22090.4,15083.76,5518.32,-2834.72,-662.06,-1041.94
1460,0.565,0.584,0.4,0.141,0.751,44.67,106.94,-23638.4,13727.76,6498.32,-3831.72,2018.94,-1988.94
1480,0.613,0.551,1.0,1.0,0.0,46.92,106.81,-24906.4,12831.76,7010.32,-2077.72,1775.94,-1436.94
1500,0.59,0.14,1.0,1.0,1.0,48.67,107.42,-24322.4,13591.76,6346.32,698.28,-99.06,-338.94
1520,0.46,0.943,1.0,0.611,0.374,50.0,108.44,-23090.4,14951.76,5578.32,1455.28,-252.06,-21.94
1540,0.553,0.394,1.0,0.898,0.229,51.54,109.29,-23070.4,14903.76,5306.32,140.28,1531.94,-519.94
1560,0.494,0.865,0.0,0.181,0.882,53.37,110.19,-23882.4,13535.76,5046.32,512.28,2003.94,-257.94
1579,0.558,0.551,1.0,0.835,1.0,54.58,111.67,-23466.4,14791.76,4110.32,2551.28,20.94,469.06
1600,0.555,0.819,0.0,1.0,0.156,55.35,113.23,-22802.4,15811.76,3542.32,2647.28,-1057.06,633.06
1620,0.42,0.675,1.0,0.909,1.0,56.13,114.52,-22830.4,15583.76,3314.32,945.28,-890.06,273.06
1639,0.541,0.728,1.0,0.726,0.795,57.07,115.67,-23166.4,14675.76,3498.32,592.28,-746.06,68.06
1660,0.494,0.721,0.0,0.674,0.0,57.87,116.75,-23082.4,15063.76,3626.32,1117.28,-902.06,13.06
1680,0.597,1.0,1.0,1.0,0.0,58.56,117.68,-22826.4,15627.76,3674.32,819.28,-637.06,-317.94
1700,0.55,0.754,0.453,0.519,0.229,59.24,118.29,-22906.4,15671.76,4090.32,-26.72,-465.06,-508.94
1720,0.586,0.917,1.0,0.789,1.0,60.02,118.68,-23198.4,14967.76,4406.32,-521.72,-401.06,-522.94
1739,0.494,0.283,0.0,0.732,0.098,60.76,119.09,-23370.4,15007.76,4494.32,105.28,-506.06,-393.94
1760,0.562,0.551,1.0,0.588,1.0,61.47,119.44,-23446.4,15235.76,4726.32,544.28,-259.06,-354.94
1780,0.439,0.0,1.0,0.364,1.0,62.1,119.71,-23342.4,15503.76,4706.32,188.28,-218.06,-357.94
1800,0.511,0.885,0.0,0.192,0.374,62.71,120.01,-23126.4,15339.76,4174.32,-430.72,-12.06,-343.94
1820,0.557,0.76,0.0,0.663,0.0,63.52,120.32,-23662.4,14723.76,3998.32,-599.72,548.94,-266.94
1840,0.52,0.76,1.0,1.0,0.809,64.1,120.51,-23686.4,15463.76,4274.32,-482.72,77.94,-109.94
1860,0.579,0.767,1.0,1.0,1.0,64.53,120.55,-23318.4,15535.76,4238.32,-1292.72,-420.06,56.06
1880,0.59,0.401,0.954,0.875,0.838,65.08,120.45,-23030.4,14531.76,4262.32,-2155.72,-230.06,293.06
1900,0.634,0.669,0.268,1.0,1.0,65.68,120.29,-23358.4,14759.76,4586.32,-1657.72,301.94,333.06
1919,0.395,0.506,0.347,1.0,0.853,66.3,120.12,-23370.4,14663.76,4794.32,-1122.72,669.94,105.06
1939,0.628,1.0,0.0,0.56,0.49,66.89,120.1,-23370.4,14663.76,4394.32,-839.72,660.94,82.06
1959,0.718,1.0,0.848,0.376,0.054,67.47,120.13,-23478.4,14075.76,4302.32,-663.72,200.94,320.06
1980,0.642,0.44,1.0,0.863,1.0,67.81,120.31,-22646.4,14207.76,3946.32,-315.72,-505.06,546.06
1999,0.663,0.885,0.004,1.0,0.78,68.11,120.38,-22750.4,14791.76,4206.32,-140.72,-73.06,516.06
2019,0.6,0.532,0.0,0.927,0.0,68.41,120.33,-22634.4,14695.76,4410.32,-376.72,54.94,233.06
2039,0.597,0.76,0.373,1.0,1.0,68.75,120.25,-22666.4,14187.76,4390.32,-452.72,-72.06,151.06
2059,0.627,0.747,0.0,0.393,1.0,69.02,120.26,-22694.4,14551.76,4190.32,-170.72,27.94,-90.94
2080,0.805,0.355,1.0,0.0,0.0,69.4,120.19,-22890.4,14267.76,4174.32,-586.72,452.94,-396.94
2100,0.672,0.61,0.505,0.691,0.722,69.7,119.96,-23082.4,14723.76,4566.32,-635.72,502.94,-616.94
2120,0.53,0.617,0.611,0.789,0.0,70.11,119.65,-23210.4,13775.76,4726.32,-683.72,278.94,-483.94
2140,0.516,1.0,0.0,0.519,0.649,70.25,119.43,-23110.4,14655.76,4826.32,245.28,-331.06,-316.94
2159,0.642,0.597,1.0,0.818,0.0,70.4,119.26,-22854.4,14615.76,4650.32,313.28,-7.06,-475.94
2180,0.707,1.0,1.0,0.944,0.0,70.62,119.11,-23306.4,14943.76,4566.32,284.28,609.94,-662.94
2199,0.83,1.0,0.0,0.915,0.403,70.8,118.93,-23246.4,14863.76,4602.32,334.28,478.94,-888.94
2219,0.716,0.721,0.268,0.56,1.0,71.01,118.87,-23778.4,14571.76,4078.32,19.28,184.94,-743.94
2240,0.558,0.793,0.822,0.772,0.388,71.1,118.71,-23842.4,14783.76,4298.32,-35.72,-299.06,-793.94
2260,0.746,0.754,1.0,1.0,0.809,71.18,118.61,-23230.4,14323.76,4014.32,-222.72,-430.06,-786.94
2280,0.614,0.342,0.0,1.0,0.025,71.29,118.33,-24030.4,14831.76,4466.32,-217.72,-60.06,-158.94
2299,0.523,0.649,1.0,0.594,0.867,71.37,118.05,-23750.4,14703.76,4438.32,-205.72,-90.06,-94.94
2319,0.385,0.225,1.0,0.927,0.766,71.4,117.71,-23466.4,14907.76,4630.32,-180.72,-21.06,41.06
2339,0.623,0.898,0.0,1.0,1.0,71.5,117.24,-23694.4,14747.76,4966.32,-253.72,289.94,91.06
2359,0.607,0.708,1.0,1.0,0.504,71.56,116.86,-23326.4,14827.76,4802.32,9.28,457.94,38.06
2379,0.355,0.728,1.0,0.336,0.0,71.71,116.5,-23514.4,14547.76,4598.32,-220.72,737.94,90.06
2399,0.719,0.689,0.0,0.015,0.809,71.77,116.31,-23442.4,14387.76,4318.32,255.28,131.94,235.06
2420,0.712,0.819,0.0,0.714,0.824,71.74,116.2,-23338.4,14287.76,4086.32,371.28,-441.06,545.06
2439,0.695,0.14,1.0,0.72,0.0,71.66,116.12,-23202.4,14495.76,4006.32,431.28,-396.06,669.06
2459,0.611,0.911,0.0,0.818,0.054,71.82,116.57,-22798.4,12619.76,2726.32,138.28,-208.06,619.06
2479,0.641,0.0,1.0,0.451,1.0,71.81,116.22,-23238.4,14447.76,4230.32,-606.72,144.94,377.06
2500,0.548,0.434,1.0,0.0,1.0,71.68,115.95,-23102.4,14495.76,4034.32,-433.72,-448.06,425.06
2519,0.748,0.414,0.03,1.0,0.345,71.43,115.7,-22818.4,14867.76,4142.32,90.28,-664.06,447.06
2539,0.718,0.76,0.0,0.99,1.0,71.24,115.34,-23002.4,15179.76,4422.32,-12.72,-111.06,163.06
2560,0.758,0.538,1.0,0.749,0.0,71.16,115.02,-23114.4,14907.76,4146.32,-394.72,364.94,-249.94
2580,0.693,0.741,0.0,0.755,1.0,71.18,114.69,-23466.4,14319.76,4090.32,-597.72,325.94,-315.94
2600,0.76,1.0,0.0,0.451,0.011,71.16,114.22,-23978.4,14287.76,4682.32,-128.72,-275.06,158.06
2620,0.707,0.845,0.479,0.015,0.664,71.08,113.64,-23998.4,14383.76,5002.32,-146.72,-549.06,638.06
2640,0.798,0.728,1.0,0.359,1.0,71.0,112.99,-23786.4,14443.76,5190.32,-283.72,-289.06,798.06
2659,0.744,0.532,0.0,0.491,0.0,70.94,112.32,-23506.4,14463.76,5274.32,-236.72,87.94,954.06
2679,0.63,0.408,1.0,0.0,0.649,70.79,111.84,-23166.4,14811.76,5070.32,447.28,62.94,984.06
2699,0.583,1.0,1.0,1.0,0.0,70.5,111.56,-22586.4,15163.76,4662.32,934.28,-165.06,806.06
2719,0.553,0.551,1.0,0.491,1.0,70.32,111.48,-22622.4,14567.76,3922.32,632.28,15.94,346.06
2739,0.595,1.0,1.0,0.921,0.04,70.12,111.3,-22762.4,14755.76,3970.32,147.28,-4.06,14.06
2760,0.714,0.421,0.0,0.0,0.0,69.94,111.22,-22826.4,14351.76,3698.32,146.28,-273.06,-132.94
2780,0.697,0.662,0.0,0.29,1.0,69.65,111.06,-23006.4,14887.76,3950.32,421.28,-664.06,-163.94
2800,0.511,0.734,1.0,1.0,0.809,69.34,110.81,-23006.4,15051.76,3938.32,-196.72,-658.06,-468.94
2820,0.497,0.728,1.0,0.743,0.606,69.08,110.46,-22894.4,14699.76,4018.32,-775.72,-575.06,-581.94
2840,0.613,0.316,0.479,1.0,1.0,68.86,110.08,-22942.4,14815.76,4118.32,-770.72,-309.06,-536.94
2860,0.798,0.643,0.0,1.0,1.0,68.68,109.59,-23262.4,14923.76,4562.32,-514.72,-74.06,-566.94
2880,0.579,0.76,1.0,1.0,0.795,68.54,109.08,-23486.4,14819.76,4690.32,-449.72,-122.06,-527.94
2900,0.723,0.669,1.0,0.657,0.374,68.35,108.51,-23410.4,14807.76,5006.32,-179.72,-317.06,-410.94
2919,0.586,0.479,1.0,0.273,0.0,68.19,108.04,-23150.4,14799.76,4814.32,6.28,-15.06,-215.94
2939,0.679,0.506,1.0,0.709,1.0,68.15,107.64,-23282.4,14731.76,4630.32,71.28,687.94,-258.94
2959,0.718,0.689,0.0,1.0,0.0,68.15,107.29,-23506.4,14755.76,4598.32,279.28,852.94,-161.94
2979,0.611,0.643,0.0,0.927,1.0,68.09,107.06,-23330.4,14559.76,4270.32,334.28,464.94,0.06
