timestamp,flex_1,flex_2,flex_3,flex_4,flex_5,kalman_pitch,kalman_roll,acc_x,acc_y,acc_z,gyro_x,gyro_y,gyro_z
0,0.0,0.411,1.0,0.96,0.604,101.71,66.84,-2716.56,-70.56,19817.2,1694.92,9468.04,249.02
18,0.0,0.44,1.0,0.982,0.866,59.85,45.31,-3516.56,33.44,19993.2,2264.92,9289.04,294.02
39,0.0,0.44,1.0,0.949,0.866,36.17,34.31,-3204.56,1085.44,20353.2,1785.92,8963.04,219.02
58,0.0,0.433,1.0,0.922,0.866,22.47,26.25,-4652.56,57.44,22001.2,629.92,9845.04,-856.98
79,0.0,0.418,1.0,0.971,0.289,13.42,20.43,-5388.56,-206.56,23021.2,626.92,8853.04,-710.98
99,0.0,0.396,1.0,0.966,0.814,6.61,15.47,-4652.56,-1082.56,23689.2,-626.08,8908.04,-533.98
119,0.0,0.367,1.0,0.982,0.709,1.48,10.28,-3660.56,-3890.56,24473.2,-1382.08,10098.04,768.02
139,0.0,0.323,1.0,0.966,0.656,-1.32,5.89,-6784.56,-5602.56,26457.2,-136.08,10263.04,5779.02
159,0.0,0.301,1.0,0.928,0.814,-3.05,2.78,-9380.56,-5106.56,28741.2,1012.92,7910.04,11543.02
179,0.0,0.242,1.0,0.938,0.709,-4.57,0.34,-8116.56,-4594.56,30085.2,827.92,9341.04,12841.02
199,0.0,0.22,1.0,0.976,0.709,-4.96,-1.86,-8976.56,-5242.56,33133.2,-150.08,13354.04,11579.02
218,0.0,0.161,1.0,0.971,0.604,-4.67,-3.7,-9760.56,-6214.56,32565.2,1930.92,17047.04,10517.02
238,0.0,0.095,0.896,0.917,0.499,-3.52,-5.54,-10336.56,-6094.56,31669.2,956.92,22326.04,11298.02
258,0.0,0.081,1.0,0.89,0.919,-2.26,-8.19,-12032.56,-6406.56,33185.2,-6411.08,21169.04,14525.02
277,1.0,0.059,1.0,0.922,0.656,-1.4,-10.48,-9888.56,-9266.56,33233.2,-2773.08,21681.04,18544.02
296,1.0,0.081,1.0,0.971,1.0,0.1,-11.53,-11344.56,-5918.56,33021.2,1450.92,25374.04,18373.02
316,1.0,0.066,1.0,0.928,0.866,2.28,-12.26,-13348.56,-3906.56,32961.2,1130.92,27940.04,17978.02
336,1.0,0.044,1.0,0.944,0.604,4.51,-13.62,-12424.56,-4678.56,32601.2,-2722.08,30299.04,16645.02
356,0.996,0.059,1.0,0.917,0.604,7.21,-14.96,-15356.56,-4726.56,32785.2,-3251.08,31326.04,17643.02
376,0.925,0.029,1.0,0.928,0.656,9.78,-15.88,-15488.56,-4198.56,30449.2,-756.08,31468.04,19728.02
396,0.985,0.029,1.0,0.917,0.919,12.37,-16.46,-16460.56,-4282.56,29329.2,1671.92,31468.04,20446.02
416,0.944,0.015,1.0,0.852,0.604,15.21,-16.51,-18788.56,-2278.56,28601.2,3040.92,31468.04,20033.02
436,0.907,0.029,1.0,0.906,0.604,18.2,-16.4,-19836.56,-902.56,25949.2,2913.92,31468.04,19880.02
456,0.992,0.0,1.0,0.895,0.394,21.3,-15.99,-20756.56,-630.56,24165.2,5008.92,31468.04,20359.02
476,0.905,0.0,1.0,0.906,0.656,24.6,-14.66,-21980.56,1521.44,22657.2,8281.92,31468.04,19795.02
496,0.92,0.0,1.0,0.911,1.0,28.24,-12.81,-23212.56,2789.44,20253.2,9777.92,31468.04,17771.02
516,1.0,0.0,1.0,0.911,0.709,32.16,-10.46,-24212.56,3845.44,18133.2,10824.92,31468.04,14968.02
536,1.0,0.007,1.0,0.928,0.604,36.38,-7.61,-24972.56,3881.44,16081.2,13436.92,31468.04,15538.02
556,1.0,0.0,1.0,0.917,0.709,40.34,-3.92,-25300.56,4593.44,16021.2,18150.92,31256.04,15959.02
576,1.0,0.0,1.0,0.917,0.656,44.21,0.15,-25860.56,5605.44,15477.2,18666.92,31468.04,11583.02
596,1.0,0.0,1.0,0.928,1.0,47.64,3.76,-26352.56,5297.44,14513.2,16036.92,28078.04,7809.02
616,1.0,0.0,1.0,0.895,0.971,50.33,6.45,-26304.56,4489.44,14645.2,13498.92,23734.04,6124.02
636,1.0,0.0,1.0,0.922,0.971,52.19,9.54,-25180.56,5473.44,13965.2,12866.92,19906.04,4876.02
656,1.0,0.0,1.0,0.922,0.446,53.66,12.6,-24192.56,5561.44,12497.2,9433.92,17107.04,2727.02
676,1.0,0.0,1.0,0.982,0.761,54.8,15.48,-23280.56,5029.44,11397.2,6488.92,14113.04,1465.02
696,1.0,0.0,1.0,0.9,0.184,55.7,18.32,-23220.56,4601.44,10893.2,5842.92,11504.04,660.02
716,1.0,0.0,1.0,0.944,0.446,55.99,21.37,-23700.56,5169.44,10533.2,4575.92,7813.04,-396.98
736,1.0,0.0,1.0,0.922,0.919,55.55,24.23,-23228.56,5497.44,10269.2,2091.92,3735.04,-1501.98
756,1.0,0.0,1.0,0.89,0.289,54.95,27.12,-22932.56,5129.44,9657.2,-29.08,1567.04,-2091.98
776,0.953,0.0,1.0,0.9,0.499,54.13,29.58,-22984.56,5557.44,10201.2,249.92,901.04,-673.98
796,1.0,0.0,1.0,0.879,0.814,53.52,31.98,-23880.56,5045.44,10425.2,2469.92,210.04,2209.02
816,0.925,0.0,1.0,0.922,0.0,52.65,34.21,-25000.56,5997.44,10713.2,1624.92,-972.96,2281.02
836,1.0,0.0,1.0,1.0,0.551,51.69,35.64,-26312.56,6333.44,11421.2,-1028.08,-2013.96,1578.02
856,1.0,0.0,1.0,0.906,0.866,50.66,37.22,-25444.56,6393.44,10993.2,-1472.08,-2576.96,1739.02
876,1.0,0.0,1.0,0.873,0.604,49.84,38.78,-26424.56,6729.44,11305.2,-650.08,-1634.96,2483.02
896,1.0,0.0,1.0,0.884,0.499,49.08,40.2,-27520.56,7073.44,12025.2,700.92,-1529.96,3652.02
916,1.0,0.0,1.0,0.879,0.919,48.38,41.75,-27272.56,7405.44,11609.2,87.92,-1135.96,2613.02
936,1.0,0.0,1.0,0.879,0.656,47.8,43.29,-28024.56,7841.44,11253.2,-1253.08,-892.96,1459.02
956,1.0,0.0,1.0,0.884,0.709,47.35,44.98,-28064.56,7729.44,10797.2,-1188.08,-625.96,1727.02
975,0.989,0.007,1.0,0.895,1.0,47.03,47.02,-28760.56,8189.44,10405.2,23.92,-40.96,2178.02
996,1.0,0.0,1.0,0.879,0.919,46.73,48.96,-29120.56,8489.44,10405.2,-366.08,-28.96,1620.02
1016,1.0,0.0,1.0,0.906,0.026,46.46,50.8,-29428.56,8301.44,10305.2,-701.08,-448.96,1207.02
1036,1.0,0.0,1.0,0.879,0.551,46.11,52.64,-28880.56,8345.44,10149.2,-826.08,-891.96,772.02
1056,0.95,0.0,1.0,0.879,1.0,45.9,54.48,-28824.56,8077.44,9865.2,-1068.08,-570.96,-72.98
1075,0.916,0.0,1.0,0.879,0.604,45.84,56.33,-29012.56,8053.44,9797.2,-650.08,-316.96,-331.98
1094,0.916,0.0,1.0,0.873,0.446,45.86,58.2,-29276.56,7781.44,9577.2,-660.08,-395.96,-416.98
1113,0.948,0.0,1.0,0.852,0.394,45.91,59.93,-29856.56,7697.44,9705.2,-654.08,-759.96,-180.98
1132,0.918,0.0,1.0,0.868,0.341,45.89,61.61,-29368.56,7545.44,9605.2,-792.08,-1257.96,79.02
1152,0.927,0.0,1.0,0.879,0.446,45.86,63.29,-29056.56,7773.44,9593.2,-605.08,-683.96,333.02
1171,0.944,0.0,1.0,0.9,0.919,45.91,64.89,-29476.56,7865.44,9825.2,96.92,-351.96,747.02
1191,1.0,0.0,1.0,0.819,0.814,45.97,66.41,-29928.56,7897.44,9997.2,520.92,-572.96,903.02
1212,1.0,0.0,1.0,0.841,0.814,45.92,67.75,-30068.56,8233.44,10181.2,187.92,-1130.96,720.02
1232,1.0,0.0,1.0,0.895,0.446,45.85,68.98,-29288.56,8229.44,10165.2,-222.08,-1000.96,-17.98
1251,0.966,0.0,1.0,0.906,0.289,45.97,70.03,-29728.56,8093.44,10173.2,-799.08,-617.96,-633.98
1270,1.0,0.0,1.0,0.884,0.604,46.19,70.92,-30024.56,7537.44,10433.2,-422.08,-742.96,-240.98
1289,1.0,0.0,1.0,0.862,0.604,46.35,72.01,-29128.56,7809.44,10277.2,636.92,-468.96,-21.98
1309,1.0,0.0,1.0,0.9,0.814,46.44,72.88,-29516.56,8153.44,10481.2,-368.08,-420.96,-944.98
1328,1.0,0.0,1.0,0.868,0.499,46.52,73.51,-29448.56,8261.44,10461.2,-1723.08,-778.96,-2446.98
1347,1.0,0.0,1.0,0.862,0.656,46.55,73.92,-29348.56,8217.44,10341.2,-3493.08,-1179.96,-4026.98
1366,1.0,0.0,1.0,0.879,0.0,46.8,74.42,-29176.56,6865.44,10057.2,-2819.08,-1434.96,-3392.98
1386,1.0,0.0,1.0,0.862,0.814,47.16,75.29,-28816.56,6717.44,10025.2,-237.08,-374.96,-1545.98
1405,1.0,0.0,1.0,0.862,1.0,47.61,75.93,-29712.56,6825.44,10609.2,815.92,-142.96,-395.98
1425,1.0,0.0,1.0,0.857,1.0,47.89,76.74,-29448.56,7325.44,10221.2,226.92,-496.96,-413.98
1445,1.0,0.0,1.0,0.852,0.604,48.2,77.45,-29716.56,7153.44,10201.2,-198.08,-617.96,-626.98
1464,1.0,0.0,1.0,0.862,0.604,48.52,78.32,-29684.56,7157.44,9965.2,319.92,-603.96,204.02
1485,1.0,0.0,1.0,0.873,0.499,48.85,79.04,-29692.56,6989.44,10453.2,1471.92,-641.96,1513.02
1505,1.0,0.0,1.0,0.852,0.394,49.1,79.8,-30128.56,7385.44,10345.2,1272.92,-995.96,1302.02
1525,1.0,0.0,1.0,0.862,0.656,49.28,80.23,-30100.56,7529.44,10521.2,-173.08,-1254.96,-69.98
1544,1.0,0.0,1.0,0.852,0.656,49.47,80.44,-30004.56,7437.44,10737.2,-594.08,-1567.96,-510.98
1563,1.0,0.0,1.0,0.852,0.656,49.69,80.61,-29856.56,7405.44,10925.2,-85.08,-1264.96,-361.98
1582,1.0,0.0,1.0,0.754,0.184,50.0,80.76,-29724.56,7281.44,11089.2,563.92,-686.96,119.02
1602,1.0,0.0,1.0,0.857,0.866,50.39,80.73,-29880.56,7013.44,11381.2,474.92,-100.96,235.02
1622,1.0,0.0,1.0,0.852,1.0,50.77,80.54,-30320.56,7081.44,11533.2,-209.08,-208.96,-41.98
1641,1.0,0.0,1.0,0.835,1.0,51.2,80.38,-30008.56,6869.44,11237.2,-444.08,-291.96,-152.98
1659,1.0,0.0,1.0,0.841,0.761,51.6,80.24,-29568.56,6837.44,11313.2,31.92,-204.96,322.02
1679,1.0,0.0,1.0,0.857,0.656,52.04,80.21,-29416.56,6837.44,11101.2,-41.08,200.04,305.02
1699,1.0,0.0,1.0,0.857,0.394,52.45,80.45,-29912.56,7349.44,10697.2,-55.08,300.04,274.02
1720,1.0,0.0,1.0,0.852,0.919,52.86,80.62,-29476.56,6865.44,10553.2,-492.08,-74.96,554.02
1739,0.968,0.0,1.0,0.89,0.814,53.24,80.78,-29540.56,7141.44,10689.2,-176.08,58.04,758.02
1760,0.991,0.0,1.0,0.841,0.814,53.52,80.99,-29872.56,7513.44,10589.2,-438.08,-312.96,641.02
1780,0.996,0.0,1.0,0.862,0.656,53.81,81.2,-29672.56,7237.44,10733.2,351.92,-453.96,646.02
1800,1.0,0.0,1.0,0.841,0.604,54.01,81.26,-29960.56,7673.44,10933.2,-319.08,-627.96,58.02
1820,1.0,0.0,1.0,0.846,0.499,54.21,81.24,-29644.56,7445.44,10845.2,-811.08,-806.96,-459.98
1839,1.0,0.0,1.0,0.835,1.0,54.42,81.15,-29744.56,7533.44,10969.2,-913.08,-779.96,-594.98
1858,1.0,0.0,1.0,0.862,0.604,54.67,80.76,-29748.56,7045.44,11505.2,-733.08,-776.96,-121.98
1876,1.0,0.0,1.0,0.835,0.446,54.95,80.6,-28776.56,7017.44,11237.2,52.92,-293.96,-17.98
1897,1.0,0.0,1.0,0.857,0.604,55.38,80.32,-29688.56,6885.44,11425.2,-129.08,456.04,-160.98
1916,1.0,0.0,1.0,0.83,0.604,55.76,80.31,-29356.56,7265.44,11125.2,242.92,590.04,109.02
1937,1.0,0.0,1.0,0.841,0.656,56.15,80.19,-29564.56,7445.44,11161.2,-440.08,841.04,-167.98
1956,1.0,0.0,1.0,0.825,0.604,56.52,80.12,-29964.56,7533.44,11185.2,-198.08,624.04,87.02
1976,1.0,0.0,1.0,0.83,0.656,56.81,80.04,-29932.56,7425.44,10929.2,-859.08,22.04,-111.98
1997,0.985,0.0,1.0,0.83,0.814,57.18,79.78,-29700.56,6893.44,10929.2,-1487.08,54.04,-456.98
2017,0.982,0.0,1.0,0.852,0.919,57.5,79.58,-29888.56,7149.44,11161.2,-721.08,105.04,384.02
2037,1.0,0.0,1.0,0.846,1.0,57.83,79.41,-29328.56,6933.44,11161.2,-207.08,183.04,1013.02
2057,0.989,0.0,1.0,0.846,0.499,58.16,79.35,-29604.56,7253.44,11181.2,176.92,499.04,1411.02
2077,1.0,0.0,1.0,0.841,0.551,58.47,79.38,-29764.56,7281.44,10969.2,182.92,265.04,1439.02
2096,0.973,0.0,1.0,0.884,0.814,58.68,79.5,-29640.56,8045.44,10989.2,208.92,544.04,897.02
2116,1.0,0.0,1.0,0.835,0.394,58.9,79.58,-29748.56,7777.44,10897.2,10.92,219.04,396.02
2136,1.0,0.0,1.0,0.835,0.709,59.16,79.87,-29456.56,7629.44,10517.2,489.92,432.04,415.02
2157,0.985,0.0,1.0,0.825,0.551,59.45,80.15,-29712.56,7357.44,10621.2,1015.92,275.04,1256.02
2177,1.0,0.0,1.0,0.895,0.814,59.67,80.48,-29264.56,7417.44,10521.2,1136.92,77.04,1497.02
2196,1.0,0.0,1.0,0.83,0.394,59.82,80.52,-29424.56,7705.44,10841.2,17.92,-14.96,990.02
2217,0.944,0.0,1.0,0.852,1.0,59.88,80.36,-29604.56,7837.44,11173.2,-396.08,-489.96,658.02
2237,0.985,0.0,1.0,0.841,0.604,59.94,80.45,-29112.56,7949.44,10761.2,-28.08,-327.96,232.02
2257,0.992,0.0,1.0,0.83,0.0,60.0,80.55,-29508.56,8233.44,10813.2,109.92,-119.96,-369.98
2277,0.948,0.0,1.0,0.841,0.709,60.06,80.71,-29492.56,7925.44,10593.2,146.92,-548.96,-496.98
2297,0.984,0.0,1.0,0.83,0.446,60.22,80.76,-29480.56,7513.44,10673.2,-0.08,-317.96,-818.98
2316,0.932,0.0,1.0,0.825,1.0,60.38,80.75,-30068.56,7905.44,10857.2,-33.08,-166.96,-875.98
2335,0.991,0.0,1.0,0.841,0.0,60.54,80.69,-30028.56,7669.44,10869.2,-162.08,-339.96,-582.98
2354,0.957,0.0,1.0,0.825,0.446,60.74,80.49,-30072.56,7433.44,11201.2,161.92,-245.96,-219.98
2374,1.0,0.0,1.0,0.841,0.446,60.85,80.33,-29972.56,7545.44,11249.2,350.92,-559.96,-65.98
2394,1.0,0.0,1.0,0.83,0.446,60.96,80.14,-29800.56,7581.44,11221.2,42.92,-441.96,-443.98
2414,1.0,0.0,1.0,0.83,0.866,61.1,79.96,-29524.56,7593.44,11141.2,-174.08,-160.96,-566.98
2432,1.0,0.0,1.0,0.835,0.761,61.29,79.82,-29628.56,7573.44,11137.2,190.92,110.04,-58.98
2452,0.953,0.0,1.0,0.83,1.0,61.42,79.75,-29756.56,7849.44,11237.2,611.92,-18.96,531.02
2472,1.0,0.0,1.0,0.83,0.341,61.61,79.77,-29252.56,7561.44,11021.2,911.92,287.04,274.02
2493,0.994,0.0,1.0,0.825,0.551,61.75,79.83,-29632.56,8253.44,10785.2,26.92,463.04,-1110.98
2513,1.0,0.0,1.0,0.825,0.499,61.9,79.74,-29784.56,7621.44,10661.2,-867.08,-161.96,-1740.98
2532,0.973,0.0,1.0,0.835,0.0,62.11,79.7,-29372.56,6997.44,10505.2,-512.08,-398.96,-1178.98
2551,0.991,0.0,1.0,0.825,0.341,62.28,79.72,-29296.56,7185.44,10797.2,838.92,-294.96,-52.98
2571,0.927,0.0,1.0,0.83,0.866,62.42,79.7,-29540.56,7169.44,10897.2,799.92,-461.96,144.02
2591,0.93,0.0,1.0,0.825,0.919,62.52,79.57,-29364.56,7413.44,11153.2,596.92,-354.96,-85.98
2611,0.904,0.0,1.0,0.835,0.551,62.63,79.25,-29364.56,7229.44,11261.2,-198.08,-407.96,-193.98
2629,0.888,0.0,1.0,0.825,0.971,62.81,78.91,-29268.56,6865.44,11237.2,44.92,-318.96,401.02
2649,0.907,0.0,1.0,0.873,0.866,63.04,78.72,-29264.56,6921.44,11141.2,594.92,80.04,637.02
2669,0.936,0.0,1.0,0.825,0.446,63.22,78.57,-29676.56,7281.44,11101.2,338.92,16.04,195.02
2689,0.932,0.0,1.0,0.825,0.341,63.33,78.54,-29568.56,7445.44,10717.2,-146.08,-360.96,34.02
2710,0.928,0.0,1.0,0.825,0.814,63.42,78.41,-29432.56,7333.44,10989.2,102.92,-504.96,323.02
2730,0.939,0.0,1.0,0.825,0.499,63.5,78.18,-29664.56,7657.44,11169.2,-354.08,-225.96,-2.98
2749,1.0,0.0,1.0,0.835,0.604,63.65,78.01,-29460.56,7337.44,11005.2,-117.08,-49.96,-111.98
2769,0.975,0.0,1.0,0.825,0.604,63.84,77.7,-29868.56,7229.44,11305.2,-121.08,84.04,-432.98
2789,0.991,0.0,1.0,0.825,0.709,63.9,77.54,-29600.56,7693.44,11193.2,27.92,-234.96,-368.98
2809,0.936,0.0,1.0,0.83,0.814,63.97,77.29,-29368.56,7349.44,11113.2,-517.08,-437.96,-518.98
2828,0.932,0.0,1.0,0.825,1.0,64.09,77.08,-29316.56,7237.44,11037.2,-353.08,-205.96,-390.98
2846,0.934,0.0,1.0,0.819,0.709,64.27,76.89,-29184.56,7017.44,11041.2,78.92,-11.96,152.02
2866,0.932,0.0,1.0,0.825,0.499,64.42,76.7,-29632.56,7293.44,11253.2,246.92,54.04,400.02
2886,0.934,0.0,1.0,0.825,0.656,64.54,76.45,-29780.56,7269.44,11361.2,223.92,-178.96,544.02
2906,0.85,0.0,1.0,0.825,0.761,64.6,76.31,-29720.56,7653.44,11193.2,-1.08,-238.96,161.02
2927,0.909,0.0,1.0,0.825,0.656,64.63,76.26,-29540.56,7697.44,10809.2,-489.08,-382.96,-248.98
2946,0.928,0.0,0.896,0.825,0.236,64.68,76.23,-29652.56,7645.44,10753.2,-466.08,-412.96,-297.98
2964,0.928,0.0,1.0,0.83,0.971,64.76,76.19,-29484.56,7393.44,10849.2,8.92,-386.96,-23.98
2985,0.934,0.0,1.0,0.825,0.394,64.87,76.25,-29456.56,7093.44,10797.2,746.92,-459.96,571.02
