timestamp,flex_1,flex_2,flex_3,flex_4,flex_5,kalman_pitch,kalman_roll,acc_x,acc_y,acc_z,gyro_x,gyro_y,gyro_z
0,1.0,0.315,0.0,0.0,0.217,2.44,-15.9,-349.6,542.56,16595.36,-381.62,-1137.5,1055.48
19,1.0,0.133,1.0,0.0,1.0,-11.68,-18.63,-453.6,302.56,16515.36,-556.62,-1119.5,1230.48
39,1.0,0.161,0.0,0.0,0.217,-20.22,-20.29,-261.6,294.56,16523.36,-280.62,-1295.5,1296.48
59,1.0,0.161,0.0,0.0,0.67,-26.25,-20.82,174.4,1094.56,16511.36,-1226.62,-1071.5,1162.48
79,1.0,0.189,1.0,0.0,0.127,-30.94,-21.29,-73.6,1374.56,15803.36,-1431.62,-1674.5,286.48
99,1.0,0.133,1.0,0.0,0.489,-34.52,-22.62,418.4,342.56,15931.36,-2816.62,-2134.5,-548.52
119,0.0,0.106,1.0,0.0,1.0,-37.54,-23.36,-105.6,966.56,15563.36,-2393.62,-2783.5,-862.52
139,0.0,0.161,1.0,0.0,0.76,-40.31,-24.23,-37.6,1090.56,15043.36,-3393.62,-3454.5,-1092.52
159,0.0,0.0,0.0,0.0,0.76,-42.51,-24.99,1038.4,886.56,15867.36,-4056.62,-2553.5,-1440.52
179,0.0,0.064,0.0,0.0,0.308,-44.03,-25.62,790.4,494.56,17043.36,-3979.62,-2513.5,-1428.52
199,0.0,0.078,0.592,0.0,0.851,-45.38,-26.49,534.4,10.56,16907.36,-4261.62,-3043.5,-1031.52
219,0.0,0.385,0.184,0.0,1.0,-46.53,-26.52,482.4,1222.56,17799.36,-3436.62,-3294.5,-187.52
239,0.0,0.343,0.0,0.0,0.851,-47.46,-26.29,838.4,878.56,19071.36,-1522.62,-3885.5,-419.52
259,0.0,0.553,0.184,0.0,0.398,-48.24,-25.0,706.4,2646.56,21119.36,1139.38,-5317.5,-943.52
279,0.0,0.79,1.0,0.0,0.398,-49.12,-23.46,1146.4,2290.56,22063.36,4290.38,-6881.5,-1242.52
299,0.0,1.0,1.0,0.0,0.67,-49.79,-21.31,698.4,2646.56,23831.36,8409.38,-7820.5,-1055.52
319,0.0,1.0,0.184,1.0,0.217,-50.53,-18.62,1454.4,3498.56,23575.36,12060.38,-7411.5,-1197.52
339,0.0,1.0,1.0,0.576,1.0,-51.02,-15.88,3274.4,3326.56,23627.36,14133.38,-4458.5,-2877.52
359,0.0,1.0,1.0,1.0,1.0,-50.29,-12.9,2418.4,3826.56,26063.36,16052.38,1438.5,-4997.52
379,0.0,1.0,1.0,0.558,1.0,-48.73,-9.92,-29.6,2182.56,28555.36,19259.38,4016.5,-6550.52
399,0.0,1.0,0.592,0.0,1.0,-47.32,-7.91,2282.4,506.56,28803.36,15639.38,5280.5,-2069.52
419,1.0,1.0,1.0,0.0,0.308,-45.29,-6.46,3002.4,2094.56,28875.36,10853.38,10860.5,-1517.52
439,1.0,1.0,1.0,0.978,1.0,-42.53,-5.3,4454.4,1950.56,28567.36,9613.38,18007.5,-3320.52
459,1.0,1.0,1.0,0.969,1.0,-39.43,-4.65,3710.4,2082.56,27803.36,6521.38,21373.5,-4681.52
479,1.0,1.0,1.0,0.969,0.851,-36.32,-4.56,3090.4,966.56,27675.36,4169.38,22216.5,-4160.52
499,1.0,1.0,1.0,0.96,0.489,-33.33,-4.63,3922.4,854.56,27507.36,3221.38,23378.5,-3312.52
519,1.0,1.0,1.0,0.973,1.0,-30.06,-4.67,3286.4,266.56,28459.36,3825.38,25454.5,-2664.52
539,1.0,1.0,1.0,1.0,1.0,-26.75,-4.59,3386.4,478.56,29291.36,4318.38,26821.5,-1900.52
559,1.0,1.0,1.0,0.955,0.851,-23.49,-4.27,3198.4,1462.56,29123.36,5126.38,27813.5,-1075.52
579,1.0,1.0,1.0,0.727,1.0,-20.25,-3.92,2626.4,1874.56,29039.36,5080.38,28671.5,431.48
599,1.0,1.0,1.0,1.0,1.0,-17.09,-3.42,3066.4,2094.56,28463.36,6112.38,30051.5,765.48
619,1.0,1.0,1.0,0.649,0.941,-13.89,-2.62,1826.4,3458.56,27935.36,7018.38,31147.5,433.48
639,1.0,1.0,1.0,0.878,1.0,-10.95,-2.04,1114.4,3174.56,26391.36,6269.38,30983.5,1124.48
659,0.986,1.0,1.0,0.448,0.67,-8.21,-1.38,1038.4,3662.56,25339.36,6553.38,31379.5,1185.48
679,0.986,1.0,1.0,0.727,1.0,-5.59,-0.73,-661.6,3498.56,23827.36,7019.38,31399.5,1141.48
699,0.986,1.0,1.0,0.612,1.0,-3.21,-0.14,-2449.6,3770.56,22603.36,6700.38,30054.5,1924.48
719,1.0,1.0,1.0,1.0,1.0,-1.43,0.58,-2677.6,4422.56,20455.36,6977.38,28414.5,2017.48
739,1.0,1.0,1.0,0.155,1.0,0.02,1.18,-4065.6,4150.56,18543.36,7016.38,27117.5,1653.48
759,1.0,1.0,1.0,0.434,1.0,1.13,1.82,-5873.6,4218.56,16975.36,7529.38,24798.5,1738.48
779,1.0,1.0,1.0,0.649,1.0,1.56,2.89,-6633.6,5778.56,14071.36,6442.38,23143.5,971.48
799,1.0,1.0,1.0,0.594,1.0,1.23,3.4,-7877.6,5374.56,11343.36,2716.38,21474.5,587.48
819,1.0,1.0,1.0,0.311,1.0,0.26,1.53,-9677.6,3786.56,9267.36,-1223.62,19143.5,1419.48
839,1.0,1.0,1.0,1.0,1.0,-1.14,2.55,-11509.6,5290.56,7995.36,-4190.62,16172.5,2434.48
859,1.0,1.0,0.0,1.0,1.0,-0.2,3.73,-12941.6,6282.56,8903.36,-5315.62,11697.5,3084.48
879,1.0,1.0,0.0,1.0,1.0,1.07,5.79,-14081.6,7746.56,9635.36,-2328.62,8187.5,3311.48
899,1.0,1.0,1.0,0.841,1.0,2.09,7.6,-14149.6,6982.56,11023.36,3977.38,7262.5,3012.48
919,0.986,1.0,1.0,0.868,1.0,3.74,10.98,-16109.6,9158.56,10311.36,6330.38,6260.5,3053.48
939,0.986,1.0,0.0,0.873,1.0,5.25,13.22,-16745.6,8738.56,11671.36,4209.38,4930.5,2960.48
959,1.0,1.0,1.0,0.882,1.0,6.41,15.38,-16509.6,9506.56,11375.36,1680.38,3963.5,1706.48
979,1.0,0.958,0.0,0.978,1.0,7.89,16.4,-17509.6,8546.56,12043.36,-1703.62,3747.5,1207.48
999,1.0,1.0,1.0,0.923,1.0,9.56,15.9,-19881.6,6462.56,14127.36,-3072.62,2583.5,1650.48
1019,1.0,1.0,1.0,1.0,1.0,10.55,15.86,-20821.6,6762.56,16171.36,461.38,-447.5,3923.48
1039,1.0,1.0,1.0,1.0,1.0,10.85,17.1,-20041.6,9082.56,17111.36,5299.38,-2358.5,4115.48
1059,1.0,0.944,0.184,0.823,1.0,11.0,18.71,-20625.6,10450.56,18583.36,7159.38,-2653.5,3560.48
1079,1.0,1.0,0.184,0.713,0.76,11.01,20.35,-20425.6,11206.56,19599.36,7559.38,-2620.5,2918.48
1099,0.986,0.958,0.0,0.644,1.0,11.01,21.63,-20069.6,11434.56,19747.36,5420.38,-2239.5,2059.48
1119,1.0,1.0,1.0,0.768,0.941,10.98,22.33,-20137.6,11586.56,20851.36,2368.38,-2119.5,1380.48
1139,1.0,0.986,1.0,0.649,1.0,10.89,22.78,-19657.6,11814.56,21151.36,788.38,-1801.5,1140.48
1159,1.0,1.0,0.0,0.562,1.0,10.65,23.24,-18945.6,12706.56,21199.36,-8.62,-2032.5,667.48
1179,0.986,1.0,1.0,0.484,0.76,10.21,23.91,-18457.6,13606.56,21967.36,1087.38,-2492.5,277.48
1199,0.986,1.0,1.0,0.521,1.0,9.64,24.98,-17717.6,14922.56,22039.36,2740.38,-2623.5,-426.52
1219,1.0,0.958,1.0,0.603,0.67,8.91,26.4,-17157.6,15910.56,21831.36,4418.38,-3210.5,-1467.52
1239,1.0,1.0,1.0,0.594,0.0,8.04,28.05,-16549.6,16822.56,21199.36,5230.38,-3797.5,-2600.52
1259,1.0,1.0,1.0,0.777,1.0,7.0,29.75,-15877.6,16830.56,21183.36,6005.38,-4595.5,-3609.52
1279,0.986,1.0,0.184,0.759,0.76,5.76,31.64,-14905.6,17598.56,21071.36,7226.38,-5211.5,-4859.52
1299,1.0,1.0,1.0,0.8,0.036,4.44,33.49,-14749.6,17466.56,21011.36,7609.38,-6047.5,-6377.52
1319,0.986,0.958,0.0,0.768,1.0,3.03,35.34,-14345.6,17302.56,20879.36,8219.38,-6787.5,-7598.52
1339,1.0,1.0,0.0,0.791,1.0,1.6,37.14,-13893.6,16846.56,20847.36,8859.38,-6924.5,-8881.52
1359,1.0,0.972,0.0,0.818,0.941,0.22,38.96,-13985.6,16858.56,20011.36,9004.38,-7295.5,-10322.52
1379,0.986,0.832,1.0,0.731,0.76,-1.27,40.54,-13781.6,15918.56,20159.36,8892.38,-8336.5,-11181.52
1399,1.0,1.0,0.184,0.864,0.941,-2.81,42.0,-14049.6,15110.56,20715.36,9805.38,-9579.5,-12046.52
1420,1.0,0.916,0.184,0.827,1.0,-4.29,43.27,-14545.6,13438.56,21131.36,11063.38,-10396.5,-12488.52
1440,0.986,1.0,1.0,0.795,0.941,-5.68,44.49,-14769.6,12462.56,21079.36,12284.38,-10745.5,-12621.52
1460,1.0,1.0,0.0,0.85,1.0,-6.95,45.53,-15665.6,11186.56,20927.36,12957.38,-11812.5,-12661.52
1480,1.0,1.0,1.0,0.873,0.398,-8.16,46.46,-15853.6,10818.56,21131.36,13285.38,-12215.5,-12284.52
1500,1.0,1.0,1.0,0.85,1.0,-9.15,47.22,-16045.6,11014.56,20435.36,11931.38,-11598.5,-12039.52
1520,0.986,0.93,1.0,0.814,1.0,-9.96,47.62,-15973.6,10990.56,19639.36,9357.38,-10987.5,-11935.52
1540,1.0,1.0,0.0,0.873,1.0,-10.89,47.75,-14821.6,11582.56,19375.36,6867.38,-10629.5,-12361.52
1560,0.986,1.0,1.0,0.859,1.0,-11.6,47.48,-15385.6,10986.56,19123.36,4892.38,-10396.5,-12780.52
1580,1.0,1.0,1.0,0.859,0.76,-12.16,47.0,-15597.6,10914.56,19235.36,3587.38,-10145.5,-12560.52
1600,0.986,1.0,0.184,0.791,1.0,-12.86,46.35,-14729.6,10866.56,19759.36,2809.38,-10049.5,-12866.52
1620,1.0,1.0,0.0,0.727,1.0,-13.56,45.31,-14821.6,10050.56,20719.36,1575.38,-10427.5,-13509.52
1639,0.986,1.0,1.0,0.626,0.217,-14.08,43.86,-15861.6,8610.56,22079.36,967.38,-10809.5,-12843.52
1660,1.0,0.958,0.0,0.718,1.0,-14.44,42.75,-15353.6,10154.56,22575.36,1283.38,-9208.5,-12359.52
1680,1.0,0.958,1.0,0.59,1.0,-14.57,41.68,-14061.6,11134.56,20823.36,-674.62,-6360.5,-13757.52
1700,0.986,0.958,0.184,0.576,1.0,-14.24,39.4,-15917.6,9962.56,20731.36,-7932.62,-5959.5,-16552.52
1720,0.986,1.0,1.0,0.727,1.0,-13.87,36.06,-17045.6,7714.56,22891.36,-12235.62,-6749.5,-16210.52
1740,0.986,1.0,0.0,0.727,0.76,-13.53,32.31,-20189.6,1602.56,25159.36,-8897.62,-9535.5,-14197.52
1759,0.986,1.0,1.0,0.795,0.76,-13.81,29.99,-20529.6,-145.44,26343.36,1456.38,-13642.5,-8237.52
1780,0.986,0.986,1.0,0.699,0.217,-14.72,30.81,-15765.6,7014.56,24955.36,15042.38,-14100.5,-4214.52
1799,1.0,0.944,1.0,0.434,1.0,-15.22,32.46,-15985.6,8942.56,22579.36,18386.38,-12352.5,-4957.52
1819,1.0,1.0,0.592,0.585,0.398,-15.31,32.64,-16505.6,9378.56,22343.36,8309.38,-10548.5,-5132.52
1839,1.0,1.0,1.0,0.42,0.76,-15.22,31.46,-17077.6,8974.56,24551.36,302.38,-9591.5,-4863.52
1859,0.986,1.0,1.0,0.288,1.0,-15.01,30.55,-16285.6,8894.56,25523.36,2128.38,-7932.5,-4046.52
1879,0.986,1.0,0.184,0.311,0.217,-14.43,30.02,-16341.6,9482.56,24819.36,3720.38,-5576.5,-3947.52
1899,0.986,0.958,1.0,1.0,1.0,-13.45,28.91,-17189.6,9182.56,24683.36,-15.62,-3701.5,-3776.52
1919,0.986,0.958,1.0,1.0,1.0,-12.28,27.56,-17029.6,9002.56,24655.36,-1817.62,-2052.5,-3516.52
1939,0.986,1.0,0.0,1.0,0.851,-11.01,26.35,-17413.6,8526.56,24599.36,-758.62,-1589.5,-2892.52
1959,0.986,0.972,0.0,1.0,0.308,-9.71,25.5,-17089.6,8938.56,23811.36,749.38,-898.5,-1862.52
1979,0.986,0.972,1.0,1.0,1.0,-8.36,24.88,-16657.6,10014.56,22999.36,599.38,162.5,-1452.52
1999,0.986,1.0,1.0,1.0,1.0,-6.91,24.09,-16741.6,10362.56,22703.36,-1191.62,968.5,-1722.52
2019,0.986,0.944,0.0,1.0,0.941,-5.44,23.08,-16617.6,10490.56,21651.36,-3606.62,1433.5,-2195.52
2039,0.986,1.0,0.184,1.0,1.0,-4.0,21.6,-16829.6,9770.56,21955.36,-6240.62,1417.5,-2434.52
2059,1.0,0.972,1.0,1.0,1.0,-2.66,19.99,-16753.6,9766.56,22547.36,-7352.62,1312.5,-2147.52
2079,0.986,0.958,1.0,1.0,0.579,-1.4,18.71,-16165.6,10654.56,22307.36,-6714.62,1774.5,-2046.52
2099,0.986,0.958,1.0,1.0,1.0,-0.1,17.48,-16501.6,9938.56,22327.36,-5979.62,2002.5,-2239.52
2119,0.986,1.0,0.0,1.0,1.0,1.03,16.38,-16957.6,9194.56,23275.36,-4314.62,862.5,-1391.52
2139,0.986,0.958,1.0,1.0,0.489,1.91,16.03,-16237.6,10142.56,22567.36,-924.62,189.5,-707.52
2159,0.986,1.0,0.0,1.0,0.67,2.78,15.82,-16153.6,10466.56,22195.36,-527.62,403.5,-1068.52
2179,0.986,1.0,1.0,1.0,1.0,3.6,15.43,-16681.6,9554.56,23095.36,-589.62,-171.5,-773.52
2199,0.986,0.93,1.0,1.0,1.0,4.26,15.44,-16397.6,9258.56,23039.36,2436.38,-805.5,-30.52
2219,0.986,1.0,1.0,1.0,0.851,4.89,15.95,-15897.6,10654.56,22243.36,3961.38,-247.5,335.48
2239,0.986,0.93,0.0,1.0,1.0,5.59,16.26,-15837.6,10902.56,22003.36,2315.38,418.5,-362.52
2259,0.986,1.0,0.184,1.0,0.76,6.33,16.12,-16317.6,10182.56,22039.36,123.38,281.5,-551.52
2279,0.986,1.0,0.0,1.0,1.0,7.06,15.95,-16213.6,10162.56,21831.36,-203.62,476.5,-69.52
2299,0.986,0.874,0.0,1.0,1.0,7.73,15.8,-15937.6,10538.56,21727.36,-658.62,663.5,-144.52
2319,0.986,0.986,0.592,1.0,0.941,8.38,15.55,-16001.6,10530.56,21639.36,-1456.62,617.5,-397.52
2339,0.986,1.0,1.0,1.0,1.0,9.01,15.4,-16121.6,10818.56,21791.36,-1079.62,638.5,-374.52
2359,0.986,1.0,1.0,1.0,0.127,9.64,15.28,-16217.6,10542.56,21603.36,-851.62,601.5,-407.52
2379,0.986,1.0,0.184,1.0,0.941,10.19,15.24,-16037.6,10930.56,21435.36,-833.62,492.5,-431.52
2399,0.986,0.86,0.592,1.0,1.0,10.73,15.15,-15917.6,10810.56,21495.36,-1073.62,734.5,-584.52
2419,0.986,0.972,0.184,1.0,1.0,11.27,15.04,-16089.6,10858.56,21571.36,-1347.62,792.5,-929.52
2439,0.986,0.958,0.0,1.0,1.0,11.76,14.87,-16361.6,10190.56,21875.36,-919.62,245.5,-870.52
2459,0.986,0.832,1.0,1.0,1.0,12.16,14.91,-16197.6,10150.56,21619.36,407.38,-50.5,-584.52
2479,0.986,1.0,1.0,1.0,1.0,12.52,15.03,-16133.6,10478.56,21263.36,319.38,-157.5,-645.52
2499,0.986,1.0,0.184,1.0,0.941,12.86,15.01,-16249.6,10278.56,21327.36,-358.62,-340.5,-830.52
2519,0.986,0.958,0.0,1.0,0.851,13.15,14.99,-16433.6,9942.56,21415.36,57.38,-816.5,-812.52
2539,0.986,0.734,1.0,1.0,1.0,13.32,15.09,-16557.6,9774.56,21291.36,999.38,-1703.5,-710.52
2559,0.986,0.958,0.184,1.0,0.579,13.3,15.36,-16357.6,9574.56,21763.36,2542.38,-2634.5,-72.52
2579,0.928,1.0,0.0,1.0,1.0,13.17,16.03,-15857.6,10830.56,21851.36,4026.38,-2679.5,696.48
2599,0.986,0.986,1.0,1.0,0.76,13.13,16.55,-15657.6,11202.56,21851.36,2743.38,-1813.5,198.48
2619,0.986,1.0,0.0,1.0,1.0,13.2,16.76,-15857.6,10746.56,22083.36,1350.38,-1264.5,-42.52
2639,0.986,1.0,0.184,1.0,1.0,13.31,17.0,-15945.6,10922.56,22007.36,1377.38,-1054.5,-124.52
2659,0.986,1.0,1.0,1.0,1.0,13.42,17.17,-15941.6,10806.56,21843.36,974.38,-1023.5,-394.52
2679,0.986,0.972,1.0,1.0,0.851,13.56,17.2,-16197.6,10510.56,22139.36,569.38,-1061.5,-438.52
2699,0.928,1.0,1.0,1.0,1.0,13.74,17.21,-16061.6,10478.56,22223.36,424.38,-540.5,-417.52
2719,0.986,0.972,1.0,1.0,0.851,14.0,17.11,-16133.6,10526.56,22131.36,-433.62,-20.5,-598.52
2739,0.986,0.972,0.184,1.0,1.0,14.26,16.9,-16137.6,10146.56,22351.36,-787.62,130.5,-684.52
2759,0.928,1.0,0.0,1.0,1.0,14.54,16.68,-16285.6,9990.56,22227.36,-731.62,122.5,-505.52
2779,0.986,1.0,0.0,1.0,0.76,14.82,16.5,-16261.6,9990.56,22079.36,-673.62,270.5,-391.52
2799,0.986,0.958,0.0,1.0,1.0,15.09,16.28,-16301.6,9870.56,22215.36,-744.62,287.5,-378.52
2819,0.986,0.958,1.0,1.0,0.489,15.35,16.09,-16285.6,9810.56,22323.36,-612.62,312.5,-240.52
2839,0.928,1.0,0.184,1.0,0.308,15.58,15.97,-16337.6,9882.56,22359.36,-233.62,185.5,29.48
2859,0.986,0.972,0.184,1.0,1.0,15.78,15.93,-16141.6,10102.56,22163.36,-94.62,329.5,87.48
2879,0.986,0.958,0.184,1.0,0.67,15.98,15.86,-15969.6,10026.56,21991.36,-304.62,520.5,72.48
2899,0.986,0.972,0.184,1.0,1.0,16.21,15.8,-16021.6,10198.56,21727.36,-557.62,735.5,37.48
2919,0.986,1.0,1.0,1.0,1.0,16.45,15.62,-16181.6,9866.56,21799.36,-1017.62,723.5,50.48
2939,0.986,0.958,1.0,1.0,1.0,16.57,15.53,-16241.6,9830.56,22163.36,-378.62,18.5,391.48
2959,0.986,1.0,0.0,0.878,0.0,16.63,15.67,-15929.6,10438.56,22167.36,568.38,73.5,485.48
2979,0.986,0.958,1.0,0.649,0.851,16.77,15.75,-15757.6,10582.56,21895.36,-148.62,833.5,156.48
