timestamp,flex_1,flex_2,flex_3,flex_4,flex_5,kalman_pitch,kalman_roll,acc_x,acc_y,acc_z,gyro_x,gyro_y,gyro_z
0,0.957,0.62,0.007,0.63,0.354,-50.87,-24.13,-4115.12,407.44,20925.44,-1391.34,-2609.34,-1813.04
19,0.53,0.607,0.206,0.667,0.406,-48.92,-25.36,-2271.12,395.44,20469.44,-2526.34,-3491.34,-2262.04
38,0.388,0.587,0.073,0.685,0.142,-46.99,-25.59,-2995.12,263.44,21345.44,-3409.34,-2281.34,-2386.04
57,0.0,0.587,0.106,0.621,0.406,-45.81,-25.83,-2659.12,-8.56,21717.44,-2782.34,-908.34,-2119.04
76,0.0,0.607,0.0,0.621,0.406,-44.44,-26.02,-3279.12,-484.56,22117.44,-804.34,-116.34,-468.04
95,0.032,0.607,0.0,0.612,0.248,-43.31,-25.94,-3115.12,-844.56,22605.44,1541.66,130.66,1540.96
114,0.103,0.587,0.206,0.63,0.248,-42.19,-25.73,-2999.12,-1236.56,22985.44,3309.66,1416.66,3338.96
133,0.246,0.587,0.14,0.576,0.248,-40.53,-25.35,-3851.12,-2176.56,24273.44,5327.66,2522.66,4425.96
152,0.388,0.58,0.14,0.612,0.406,-38.73,-24.55,-4135.12,-2352.56,25613.44,7168.66,3396.66,4642.96
171,0.459,0.633,0.106,0.612,0.248,-36.61,-23.32,-5955.12,-2148.56,27645.44,8293.66,2426.66,4055.96
190,0.53,0.58,0.0,0.648,0.248,-34.93,-21.88,-5847.12,-1788.56,28829.44,9021.66,771.66,3355.96
210,0.53,0.666,0.206,0.612,0.354,-33.45,-20.24,-6055.12,-1520.56,30693.44,9294.66,-609.34,3630.96
229,0.744,0.653,0.007,0.612,0.406,-32.09,-18.89,-5911.12,-2480.56,31545.44,9821.66,-514.34,5064.96
248,0.886,0.64,0.206,0.621,0.248,-30.77,-17.31,-5215.12,-1220.56,32653.44,10019.66,841.66,5699.96
268,0.53,0.626,0.106,0.621,0.354,-29.26,-15.8,-4747.12,-1988.56,32241.44,11104.66,3655.66,6787.96
288,0.744,0.633,0.106,0.667,0.354,-27.51,-14.17,-4319.12,-884.56,33017.44,10995.66,6546.66,6757.96
308,0.815,0.646,0.007,0.676,0.301,-25.69,-12.86,-3515.12,-1124.56,32545.44,10112.66,9121.66,6617.96
327,0.886,0.66,0.14,0.694,0.459,-23.81,-11.64,-3267.12,-712.56,32881.44,10118.66,11429.66,7361.96
346,0.886,0.706,0.206,0.758,0.406,-21.73,-10.29,-2807.12,-416.56,33517.44,11168.66,14126.66,7374.96
365,0.886,0.626,0.173,0.685,0.09,-19.5,-8.86,-2919.12,491.44,33005.44,11476.66,16691.66,6780.96
385,0.0,0.626,0.206,0.53,0.828,-17.07,-7.58,-3471.12,779.44,33285.44,10267.66,17706.66,6564.96
405,0.0,0.653,0.14,0.667,0.354,-14.87,-6.47,-2999.12,763.44,32637.44,9895.66,18254.66,5752.96
425,0.0,0.633,0.272,0.53,0.142,-12.66,-5.27,-3439.12,1299.44,32397.44,10606.66,19348.66,5360.96
445,0.0,0.646,0.073,0.685,0.406,-10.49,-4.12,-3551.12,1695.44,31681.44,10567.66,20619.66,4441.96
465,0.0,0.666,0.173,0.739,0.459,-8.36,-2.99,-4227.12,2471.44,31117.44,10195.66,21429.66,3623.96
485,0.0,0.646,0.14,0.685,0.459,-6.32,-2.0,-4819.12,2735.44,30745.44,9623.66,21593.66,2979.96
505,0.0,0.6,0.206,0.658,0.301,-4.48,-1.09,-5475.12,3059.44,29521.44,9394.66,21508.66,2461.96
525,0.0,0.673,0.14,0.676,0.301,-2.79,-0.02,-5975.12,4463.44,28465.44,9140.66,21791.66,2013.96
545,0.0,0.66,0.206,0.676,0.037,-1.38,0.87,-6579.12,5167.44,25617.44,7421.66,22130.66,-746.04
565,0.0,0.66,0.073,0.676,0.301,-0.17,1.35,-7483.12,5207.44,23805.44,5000.66,21903.66,-2588.04
585,0.0,0.646,0.306,0.594,0.406,0.96,1.7,-8987.12,5483.44,22781.44,3825.66,20511.66,-3117.04
605,0.0,0.587,0.206,0.685,0.248,1.48,1.9,-9335.12,5167.44,20613.44,3941.66,18569.66,-3481.04
625,0.0,0.646,0.073,0.676,0.195,1.38,2.23,-9735.12,5487.44,18369.44,4164.66,16793.66,-3105.04
645,0.0,0.799,0.0,0.685,0.301,1.34,1.56,-11451.12,4215.44,16301.44,3286.66,15284.66,-3430.04
665,0.0,0.62,0.04,0.685,0.828,0.52,-0.05,-11291.12,3467.44,14289.44,3964.66,14643.66,-5529.04
685,0.0,0.66,0.0,0.685,0.617,-0.49,-1.26,-12367.12,4487.44,12777.44,3898.66,14155.66,-6645.04
704,0.0,0.626,0.173,0.703,0.248,1.05,-3.24,-14723.12,3943.44,12789.44,2925.66,11345.66,-6169.04
724,0.0,0.686,0.206,0.694,0.09,3.04,-5.7,-15831.12,3495.44,12657.44,2883.66,5901.66,-3920.04
744,0.0,0.646,0.106,0.676,0.987,4.79,-7.49,-16599.12,3463.44,13121.44,4793.66,1274.66,-2136.04
764,0.0,0.626,0.206,0.63,0.301,5.98,-7.93,-17615.12,3623.44,14777.44,7520.66,-2869.34,-455.04
783,0.0,0.607,0.073,0.567,0.301,6.28,-7.44,-16679.12,4279.44,15181.44,10211.66,-4752.34,2314.96
803,0.0,0.633,0.106,0.658,0.828,6.32,-5.89,-16467.12,5235.44,16629.44,11992.66,-3305.34,3394.96
823,0.0,0.613,0.14,0.703,0.354,6.88,-4.24,-17691.12,6047.44,18765.44,10432.66,-1308.34,1303.96
843,0.0,0.62,0.04,0.94,0.828,7.77,-3.44,-19147.12,6307.44,19993.44,4605.66,-1206.34,871.96
863,0.0,0.62,0.14,0.558,0.0,8.79,-3.86,-20507.12,5447.44,20693.44,-1242.34,-2279.34,1292.96
883,0.0,0.62,0.14,0.739,0.459,9.51,-4.82,-21919.12,4399.44,23205.44,-3053.34,-3924.34,2304.96
902,0.0,0.633,0.106,0.721,0.354,9.83,-5.4,-22639.12,3951.44,26405.44,-808.34,-5457.34,3368.96
921,0.0,0.62,0.106,0.703,0.301,9.87,-5.62,-21143.12,3527.44,27061.44,2171.66,-4952.34,4458.96
941,0.0,0.62,0.073,0.676,0.301,10.02,-5.49,-19803.12,3663.44,27637.44,4241.66,-1787.34,4911.96
961,0.0,0.567,0.106,0.676,0.354,10.63,-5.37,-18899.12,4327.44,26641.44,3380.66,2277.66,4229.96
981,0.0,0.62,0.04,0.667,0.248,11.86,-5.96,-20043.12,4371.44,25945.44,-1583.34,4786.66,3461.96
1001,0.0,0.607,0.206,0.676,0.512,13.07,-7.56,-21055.12,3035.44,25893.44,-6685.34,3742.66,4278.96
1021,0.0,0.6,0.04,0.603,0.248,13.8,-9.28,-20899.12,2031.44,26925.44,-6953.34,1744.66,6913.96
1041,0.0,0.587,0.0,0.694,0.617,14.22,-10.33,-19979.12,2255.44,27433.44,-3535.34,1298.66,9089.96
1061,0.0,0.6,0.04,0.667,0.406,14.82,-10.8,-20399.12,2991.44,27585.44,-1106.34,2180.66,9830.96
1081,0.0,0.62,0.206,0.667,0.195,15.23,-11.02,-19931.12,3423.44,28517.44,-340.34,2026.66,11332.96
1101,0.0,0.613,0.173,0.703,0.248,15.54,-10.96,-18623.12,4439.44,27921.44,112.66,2996.66,12506.96
1121,0.0,0.607,0.0,0.712,0.406,15.99,-10.78,-17871.12,5895.44,27509.44,-1190.34,5076.66,12838.96
1141,0.0,0.593,0.0,0.585,0.248,16.76,-10.93,-19027.12,6687.44,27837.44,-4668.34,6074.66,12142.96
1161,0.0,0.62,0.007,0.676,0.406,17.42,-11.42,-19119.12,6959.44,28029.44,-7552.34,5633.66,12034.96
1181,0.0,0.607,0.106,0.685,0.406,17.98,-12.02,-18191.12,7055.44,27001.44,-8977.34,6087.66,12073.96
1201,0.0,0.607,0.173,0.621,0.406,18.57,-12.62,-18139.12,7359.44,26641.44,-9783.34,6614.66,12005.96
1221,0.0,0.593,0.0,0.658,0.195,19.08,-13.22,-17795.12,7355.44,26021.44,-10392.34,6617.66,11794.96
1241,0.0,0.593,0.106,0.667,0.248,19.38,-13.69,-17815.12,7439.44,26129.44,-9877.34,5492.66,12481.96
1261,0.0,0.607,0.206,0.612,0.248,19.42,-13.59,-17467.12,8555.44,25593.44,-8153.34,4179.66,13335.96
1281,0.0,0.587,0.106,0.694,0.354,19.28,-12.9,-17351.12,10063.44,25193.44,-6539.34,3233.66,13050.96
1301,0.0,0.6,0.04,0.676,0.406,18.9,-11.9,-16747.12,10487.44,25357.44,-4804.34,2431.66,12761.96
1321,0.0,0.593,0.173,0.712,0.512,18.48,-10.4,-16019.12,11203.44,24897.44,-2376.34,3197.66,12201.96
1341,0.0,0.587,0.04,0.694,0.301,18.29,-8.53,-15951.12,12003.44,24625.44,-652.34,4786.66,10720.96
1361,0.0,0.593,0.007,0.685,0.195,18.36,-6.66,-16823.12,12115.44,23457.44,-1020.34,5033.66,9697.96
1381,0.0,0.593,0.173,0.648,0.142,18.3,-5.14,-17695.12,11255.44,23717.44,-1500.34,2907.66,9299.96
1401,0.0,0.593,0.106,0.648,0.037,17.86,-3.53,-17379.12,11219.44,23737.44,-304.34,707.66,9727.96
1421,0.0,0.593,0.106,0.667,0.406,17.26,-1.46,-16827.12,13047.44,23365.44,523.66,429.66,9468.96
1441,0.0,0.607,0.007,0.712,0.0,16.83,0.38,-17111.12,13235.44,22949.44,-976.34,959.66,7819.96
1461,0.0,0.593,0.073,0.667,0.301,16.46,1.63,-17951.12,12091.44,24101.44,-2142.34,157.66,6902.96
1481,0.0,0.593,0.073,0.667,0.987,15.93,2.88,-17427.12,11659.44,24953.44,-784.34,-207.34,6953.96
1501,0.0,0.593,0.206,0.685,0.248,15.6,4.27,-17223.12,12155.44,24661.44,-205.34,1264.66,6711.96
1521,0.0,0.58,0.106,0.703,0.301,15.53,5.23,-18679.12,11947.44,25361.44,-2134.34,1233.66,6235.96
1541,0.0,0.587,0.106,0.676,0.723,15.31,5.98,-18583.12,11655.44,25977.44,-2650.34,412.66,6254.96
1561,0.0,0.653,0.306,0.73,0.459,15.11,6.92,-18271.12,11671.44,26105.44,-1060.34,951.66,6139.96
1581,0.0,0.6,0.206,0.585,0.67,15.22,8.09,-19239.12,11811.44,25829.44,544.66,1736.66,5887.96
1601,0.0,0.593,0.073,0.694,0.459,15.39,9.42,-19619.12,11823.44,25957.44,2030.66,1808.66,5500.96
1621,0.0,0.593,0.14,0.63,0.195,15.54,10.98,-19271.12,11463.44,25841.44,4435.66,2024.66,5666.96
1641,0.0,0.6,0.106,0.694,0.0,15.69,12.97,-18707.12,11927.44,25389.44,7168.66,2729.66,5968.96
1661,0.032,0.607,0.14,0.685,0.67,16.65,16.1,-21747.12,12311.44,21949.44,13104.66,3147.66,5863.96
1681,0.388,0.593,0.14,0.739,0.301,17.04,18.25,-19255.12,13427.44,22845.44,6624.66,3455.66,3234.96
1701,0.103,0.6,0.106,0.63,0.617,17.22,19.62,-19423.12,13519.44,22465.44,1579.66,1763.66,1307.96
1721,0.246,0.593,0.073,0.721,0.142,17.26,20.48,-19675.12,12647.44,22677.44,-239.34,362.66,140.96
1741,0.388,0.607,0.0,0.712,0.406,17.2,21.05,-19807.12,12219.44,23085.44,-1156.34,-365.34,-330.04
1761,0.388,0.587,0.0,0.794,0.0,17.04,21.37,-19307.12,11915.44,23349.44,-2199.34,-463.34,-179.04
1780,0.174,0.587,0.106,0.676,0.301,17.08,21.55,-19523.12,11599.44,23425.44,-2511.34,540.66,-561.04
1800,0.174,0.587,0.106,0.694,0.248,17.23,21.68,-19839.12,10967.44,23569.44,-1973.34,901.66,-719.04
1820,0.103,0.6,0.04,0.685,0.195,17.36,21.82,-19959.12,10335.44,23729.44,-855.34,555.66,-368.04
1840,0.246,0.587,0.173,1.0,0.459,17.48,22.15,-20215.12,10271.44,23457.44,405.66,66.66,550.96
1860,0.246,0.587,0.106,0.676,0.406,17.59,22.69,-20315.12,11011.44,23205.44,923.66,-82.34,1055.96
1880,0.174,0.587,0.04,0.548,0.406,17.67,23.18,-20135.12,11555.44,23001.44,-88.34,-10.34,965.96
1900,0.246,0.6,0.04,0.685,0.459,17.8,23.47,-20619.12,11271.44,23473.44,-732.34,-141.34,620.96
1920,0.174,0.593,0.007,0.667,0.987,17.82,23.75,-20587.12,10787.44,23693.44,125.66,-774.34,404.96
1940,0.174,0.6,0.14,0.703,0.406,17.78,24.22,-20619.12,11187.44,23969.44,1199.66,-1113.34,128.96
1960,0.174,0.587,0.106,0.63,0.617,17.74,24.71,-20555.12,11231.44,24273.44,1566.66,-931.34,1.96
1980,0.246,0.593,0.106,0.667,0.354,17.74,25.12,-20487.12,11011.44,24161.44,1437.66,-630.34,-16.04
2000,0.174,0.587,0.14,0.648,0.248,17.79,25.4,-20407.12,10791.44,24241.44,1024.66,-302.34,-120.04
2020,0.103,0.593,0.0,0.676,0.512,17.82,25.56,-20279.12,10555.44,24373.44,662.66,-269.34,102.96
2040,0.246,0.6,0.04,0.667,0.406,17.84,25.66,-20507.12,10575.44,24497.44,431.66,-469.34,303.96
2060,0.103,0.593,0.173,0.685,0.195,17.8,25.79,-20343.12,10955.44,24617.44,273.66,-707.34,682.96
2080,0.103,0.587,0.206,0.648,0.301,17.74,25.91,-20043.12,11447.44,24409.44,-467.34,-509.34,588.96
2100,0.103,0.587,0.14,0.667,0.459,17.8,25.91,-20391.12,11523.44,24121.44,-1458.34,-208.34,302.96
2120,0.174,0.587,0.007,0.63,0.09,17.91,25.84,-20339.12,10987.44,24253.44,-1176.34,145.66,197.96
2140,0.174,0.6,0.0,0.667,0.195,18.07,25.84,-20435.12,10711.44,24117.44,-392.34,340.66,132.96
2160,0.174,0.593,0.0,0.612,0.0,18.18,25.99,-20483.12,11071.44,24309.44,244.66,57.66,398.96
2180,0.103,0.607,0.04,0.712,0.142,18.29,26.15,-20107.12,11279.44,23725.44,-50.34,323.66,320.96
2200,0.246,0.593,0.206,0.667,0.67,18.44,26.17,-20307.12,10911.44,23869.44,-510.34,422.66,-21.04
2220,0.388,0.587,0.073,0.676,0.617,18.58,26.21,-20539.12,10735.44,23797.44,-85.34,-16.34,160.96
2240,0.246,0.587,0.007,0.685,0.09,18.65,26.34,-20495.12,10655.44,24017.44,749.66,-274.34,548.96
2260,0.388,0.607,0.073,0.639,0.09,18.66,26.54,-20375.12,11047.44,24177.44,905.66,-453.34,825.96
2280,0.388,0.6,0.106,0.712,0.09,18.63,26.66,-20011.12,11167.44,24033.44,228.66,-389.34,762.96
2300,0.459,0.62,0.04,0.639,0.354,18.71,26.73,-20027.12,11067.44,23725.44,-48.34,214.66,149.96
2320,0.388,0.587,0.106,0.639,0.67,18.82,26.84,-20379.12,11199.44,24185.44,327.66,268.66,329.96
2340,0.459,0.593,0.106,0.63,0.301,18.89,26.99,-20271.12,11207.44,23881.44,540.66,-37.34,533.96
2360,0.246,0.587,0.04,0.676,0.142,18.93,27.12,-20183.12,11303.44,23949.44,386.66,-62.34,502.96
2380,0.388,0.587,0.073,0.639,0.301,18.99,27.23,-20119.12,11463.44,23873.44,47.66,122.66,386.96
2400,0.459,0.6,0.04,0.667,0.301,19.03,27.29,-20095.12,11535.44,23865.44,-287.34,79.66,232.96
2420,0.103,0.573,0.073,0.639,0.301,19.07,27.32,-19975.12,11419.44,23745.44,-400.34,64.66,36.96
2440,0.246,0.6,0.073,0.648,0.67,19.13,27.32,-20351.12,11315.44,23709.44,-432.34,-158.34,-109.04
2460,0.103,0.607,0.106,0.639,0.195,19.12,27.32,-20411.12,11191.44,23869.44,-243.34,-710.34,111.96
2480,0.174,0.593,0.073,0.676,0.195,19.05,27.36,-20139.12,11411.44,24101.44,9.66,-718.34,151.96
2500,0.174,0.587,0.04,0.63,0.142,19.0,27.37,-19715.12,11435.44,24109.44,-283.34,-97.34,-229.04
2520,0.388,0.593,0.073,0.703,0.723,19.08,27.29,-20095.12,11115.44,23985.44,-485.34,185.66,-434.04
2540,0.388,0.587,0.14,0.648,0.142,19.14,27.23,-20423.12,11035.44,24177.44,-169.34,-140.34,-81.04
2560,0.174,0.607,0.073,0.703,0.354,19.15,27.26,-20327.12,11335.44,24153.44,127.66,-390.34,182.96
2580,0.246,0.633,0.007,0.648,0.248,19.14,27.26,-20079.12,11391.44,24149.44,-178.34,-273.34,-21.04
2600,0.388,0.587,0.106,0.63,0.459,19.16,27.22,-20167.12,11419.44,24221.44,-379.34,-151.34,-101.04
2620,0.246,0.58,0.0,0.667,0.301,19.18,27.15,-20143.12,11159.44,24065.44,-368.34,-147.34,-249.04
2640,0.246,0.593,0.106,0.667,0.09,19.18,27.08,-20327.12,11115.44,24213.44,-219.34,-496.34,-175.04
2660,0.032,0.593,0.04,0.639,0.142,19.12,27.05,-20143.12,11279.44,24397.44,-8.34,-647.34,-61.04
2680,0.103,0.587,0.106,0.676,0.354,19.08,27.02,-19847.12,11199.44,24473.44,64.66,-174.34,-314.04
2700,0.174,0.587,0.073,0.658,0.195,19.14,26.95,-20087.12,11079.44,24321.44,-83.34,199.66,-340.04
2720,0.0,0.587,0.0,0.658,0.406,19.24,26.82,-20035.12,10827.44,24077.44,-247.34,353.66,-433.04
2740,0.103,0.587,0.007,0.667,0.195,19.34,26.73,-20055.12,10859.44,24037.44,-133.34,376.66,-291.04
2760,0.032,0.58,0.14,0.63,0.459,19.45,26.62,-20295.12,10799.44,23885.44,-201.34,103.66,-80.04
2780,0.246,0.587,0.206,0.63,0.248,19.49,26.5,-20411.12,10727.44,24141.44,-32.34,-388.34,177.96
2800,0.174,0.6,0.106,0.658,0.195,19.45,26.47,-19915.12,11023.44,24121.44,146.66,-334.34,213.96
2820,0.032,0.6,0.106,0.685,0.406,19.49,26.4,-19971.12,11219.44,23877.44,-414.34,64.66,-139.04
2840,0.246,0.593,0.007,0.648,0.248,19.56,26.2,-20167.12,10787.44,24021.44,-799.34,57.66,-347.04
2860,0.388,0.6,0.206,0.648,0.459,19.63,26.04,-20283.12,10731.44,24073.44,-388.34,-98.34,-24.04
2880,0.103,0.593,0.173,0.667,0.301,19.64,25.94,-20303.12,10927.44,24297.44,-160.34,-340.34,159.96
2900,0.174,0.6,0.073,0.648,0.142,19.63,25.85,-20163.12,11063.44,24225.44,-271.34,-385.34,180.96
2920,0.246,0.613,0.04,0.63,0.301,19.65,25.74,-20091.12,10999.44,24205.44,-369.34,-63.34,123.96
2940,0.388,0.607,0.073,0.639,0.406,19.72,25.61,-20195.12,10931.44,24437.44,-277.34,184.66,44.96
2960,0.246,0.593,0.073,0.721,0.301,19.78,25.56,-20151.12,11067.44,24409.44,55.66,194.66,101.96
2979,0.459,0.6,0.14,0.639,0.09,19.85,25.54,-20111.12,11135.44,24117.44,73.66,259.66,87.96
