timestamp,flex_1,flex_2,flex_3,flex_4,flex_5,kalman_pitch,kalman_roll,acc_x,acc_y,acc_z,gyro_x,gyro_y,gyro_z
0,0.0,0.206,1.0,0.911,0.499,-42.11,20.59,-3064.56,-242.56,20081.2,3486.92,-462.96,971.02
19,0.0,0.25,1.0,0.911,0.604,-40.44,3.76,-4596.56,-1422.56,21585.2,1648.92,-379.96,318.02
39,0.0,0.279,1.0,0.911,0.604,-40.6,-3.23,-4428.56,-1982.56,20861.2,2814.92,-1752.96,905.02
60,0.0,0.286,1.0,0.879,0.604,-41.65,-6.7,-3472.56,-1906.56,20365.2,5070.92,-1494.96,1593.02
77,0.0,0.272,1.0,0.879,0.656,-42.4,-8.31,-3100.56,-1530.56,20441.2,6009.92,-217.96,1632.02
96,0.0,0.22,1.0,0.911,0.866,-42.46,-9.2,-2684.56,-1594.56,21541.2,5912.92,1643.04,2054.02
116,0.0,0.169,1.0,0.895,0.551,-41.29,-9.84,-3620.56,-2154.56,23445.2,6032.92,3606.04,2609.02
135,0.0,0.147,1.0,0.825,0.446,-39.88,-10.54,-3176.56,-2486.56,25701.2,3307.92,4532.04,3714.02
155,0.0,0.088,1.0,0.873,0.551,-37.17,-12.06,-4640.56,-6738.56,29257.2,3987.92,7523.04,5255.02
174,0.0,0.081,1.0,0.895,0.604,-34.59,-13.7,-2948.56,-8558.56,30485.2,3566.92,11466.04,7748.02
193,0.0,0.081,1.0,0.884,0.604,-31.2,-14.2,-5676.56,-5290.56,34745.2,2226.92,13978.04,12874.02
213,0.0,0.059,1.0,0.857,0.709,-28.06,-15.48,-2868.56,-7178.56,32805.2,76.92,18780.04,13704.02
233,0.0,0.059,1.0,0.873,0.866,-23.92,-16.78,-3992.56,-8526.56,33353.2,552.92,26208.04,14943.02
253,0.0,0.073,1.0,0.862,0.656,-19.26,-17.97,-5816.56,-11322.56,34457.2,3288.92,29479.04,18857.02
273,0.0,0.007,1.0,0.879,0.604,-14.94,-18.39,-5064.56,-10922.56,34857.2,7364.92,30875.04,25769.02
292,1.0,0.044,1.0,0.862,0.814,-10.77,-17.75,-7036.56,-7710.56,37225.2,10255.92,31468.04,28239.02
312,1.0,0.022,1.0,0.879,0.814,-6.34,-17.1,-9472.56,-8358.56,37557.2,11094.92,31468.04,27491.02
332,1.0,0.0,0.962,0.857,0.919,-2.07,-16.02,-11152.56,-4350.56,36625.2,10307.92,31468.04,25954.02
352,1.0,0.007,0.962,0.873,0.709,2.2,-15.45,-13540.56,-3558.56,34153.2,6971.92,31468.04,24118.02
372,1.0,0.0,1.0,0.868,0.184,6.46,-14.83,-15316.56,-1414.56,31081.2,5244.92,31468.04,23591.02
392,1.0,0.0,1.0,0.879,0.709,10.68,-14.43,-16396.56,-914.56,26093.2,4304.92,31468.04,20975.02
412,1.0,0.0,0.896,0.89,1.0,15.2,-13.39,-17748.56,789.44,21509.2,6218.92,31468.04,20030.02
432,1.0,0.0,1.0,0.879,0.656,21.06,-10.66,-20712.56,3929.44,17529.2,7351.92,31468.04,18008.02
452,0.985,0.0,1.0,0.911,0.551,27.85,-6.84,-23228.56,5397.44,14921.2,5695.92,31468.04,14468.02
472,1.0,0.0,1.0,0.89,0.656,34.94,-2.36,-22928.56,4769.44,12613.2,6356.92,31468.04,14151.02
492,1.0,0.0,1.0,0.884,0.604,41.63,2.82,-22928.56,4997.44,12005.2,8620.92,31468.04,12798.02
512,0.941,0.0,1.0,0.895,0.499,47.99,9.9,-23676.56,5921.44,10385.2,9760.92,31468.04,10394.02
532,1.0,0.0,1.0,0.895,0.814,53.78,17.07,-24648.56,5949.44,9761.2,8397.92,29126.04,8145.02
552,0.998,0.0,1.0,0.9,0.656,58.79,23.67,-23968.56,4589.44,9649.2,8095.92,23336.04,7179.02
572,0.975,0.0,0.995,0.906,0.236,62.25,30.95,-23164.56,5677.44,9061.2,9168.92,19421.04,6102.02
592,0.982,0.0,1.0,0.922,0.919,64.99,37.41,-24072.56,6025.44,9265.2,7914.92,16076.04,3927.02
612,0.984,0.0,1.0,0.911,1.0,67.25,42.3,-24144.56,5201.44,10041.2,6970.92,11995.04,2756.02
632,0.059,0.0,1.0,0.879,0.394,68.48,46.64,-24676.56,5949.44,10473.2,6881.92,7710.04,2493.02
652,0.007,0.0,1.0,0.911,0.761,69.1,51.17,-23716.56,6025.44,9821.2,5481.92,5290.04,1533.02
672,0.77,0.0,1.0,0.911,0.604,69.47,54.45,-24996.56,6005.44,10761.2,5333.92,2849.04,1826.02
692,0.0,0.0,1.0,0.911,0.866,69.35,57.09,-24840.56,6153.44,11277.2,5192.92,724.04,2001.02
712,0.0,0.0,1.0,0.906,0.0,69.02,58.95,-24756.56,6017.44,11653.2,3696.92,-491.96,551.02
732,0.0,0.0,1.0,0.938,0.394,68.59,60.63,-25868.56,6305.44,11657.2,2529.92,-2059.96,220.02
752,0.0,0.0,1.0,0.895,0.446,67.94,61.74,-24736.56,5889.44,12289.2,4047.92,-2355.96,1385.02
772,0.0,0.0,1.0,0.895,0.656,66.99,63.04,-25392.56,7381.44,12589.2,2979.92,-2435.96,810.02
792,0.0,0.0,1.0,0.9,0.656,66.2,62.85,-25872.56,6021.44,13241.2,-66.08,-3833.96,-598.98
811,0.0,0.0,1.0,0.911,0.656,65.32,62.95,-25640.56,6673.44,12921.2,-1013.08,-3976.96,-1122.98
830,0.0,0.0,1.0,0.9,0.656,64.68,62.75,-25724.56,5865.44,12641.2,-1472.08,-4729.96,-214.98
849,0.0,0.0,1.0,0.906,0.814,64.21,63.01,-24988.56,5781.44,12109.2,-300.08,-3777.96,54.02
869,0.0,0.0,1.0,0.895,0.709,63.58,63.2,-26152.56,6913.44,13065.2,-415.08,-3167.96,-184.98
888,0.0,0.0,1.0,0.884,0.604,63.17,62.98,-26568.56,6441.44,13217.2,-876.08,-3067.96,60.02
908,0.0,0.0,1.0,0.879,1.0,62.96,63.28,-26648.56,6761.44,12625.2,-588.08,-2000.96,1022.02
928,0.0,0.0,1.0,0.895,0.551,62.96,63.81,-27840.56,7205.44,12449.2,-566.08,-1221.96,2100.02
948,0.0,0.0,1.0,0.89,1.0,62.92,64.69,-28000.56,7889.44,11977.2,-938.08,-1024.96,2255.02
968,0.0,0.0,1.0,0.895,0.604,62.95,65.9,-28136.56,7913.44,11261.2,-1177.08,-1029.96,1628.02
988,0.0,0.0,1.0,0.754,0.551,63.15,67.51,-28356.56,8337.44,10717.2,-428.08,423.04,1950.02
1008,0.0,0.0,1.0,0.89,0.656,63.39,69.3,-29108.56,8909.44,10705.2,918.92,1013.04,3023.02
1028,0.0,0.0,1.0,0.841,0.499,63.66,71.08,-29332.56,8921.44,10441.2,709.92,1155.04,2802.02
1048,0.0,0.007,1.0,0.884,0.656,63.97,72.68,-29976.56,8785.44,10517.2,651.92,942.04,2688.02
1068,0.0,0.0,1.0,0.895,0.866,64.07,74.33,-29668.56,9233.44,10341.2,710.92,423.04,2243.02
1088,0.0,0.0,1.0,0.971,0.919,64.21,75.7,-29792.56,9053.44,10469.2,79.92,412.04,897.02
1108,0.0,0.0,1.0,0.895,0.814,64.4,77.03,-30232.56,8645.44,10437.2,571.92,-3.96,1011.02
1128,0.0,0.0,1.0,0.911,0.866,64.6,78.45,-30376.56,8205.44,10097.2,750.92,-743.96,1205.02
1148,0.992,0.0,1.0,0.9,1.0,64.67,79.78,-30136.56,8325.44,10161.2,987.92,-1156.96,1277.02
1168,1.0,0.0,1.0,0.906,0.814,64.76,81.3,-28380.56,7901.44,9629.2,993.92,-565.96,826.02
1188,0.994,0.0,1.0,0.906,0.0,65.09,82.44,-29360.56,7813.44,9973.2,435.92,441.04,18.02
1208,0.975,0.0,1.0,0.911,0.236,65.45,83.45,-30092.56,7765.44,10097.2,579.92,227.04,145.02
1228,1.0,0.0,1.0,0.966,0.604,65.76,84.31,-29816.56,7473.44,10213.2,713.92,-164.96,200.02
1248,1.0,0.0,1.0,0.933,0.551,66.07,85.2,-29800.56,7377.44,10005.2,490.92,-236.96,63.02
1268,0.953,0.0,1.0,0.982,0.866,66.31,86.1,-29608.56,7433.44,9921.2,645.92,-421.96,390.02
1288,1.0,0.0,1.0,0.998,0.656,66.45,86.85,-29628.56,7641.44,10009.2,196.92,-738.96,530.02
1308,1.0,0.0,1.0,0.982,0.709,66.58,87.46,-29232.56,7553.44,10137.2,222.92,-631.96,485.02
1328,1.0,0.0,1.0,0.96,0.919,66.73,88.13,-28980.56,7757.44,9977.2,146.92,-6.96,-28.98
1348,1.0,0.0,1.0,0.917,0.761,66.92,88.76,-29748.56,7885.44,10037.2,323.92,65.04,-58.98
1368,1.0,0.0,1.0,0.911,0.814,66.99,89.31,-29936.56,7941.44,10129.2,446.92,-695.96,-33.98
1388,1.0,0.0,1.0,0.938,0.236,66.96,89.81,-29436.56,7977.44,9965.2,-282.08,-1105.96,-475.98
1407,1.0,0.0,1.0,0.922,0.446,67.09,90.04,-29108.56,7425.44,10137.2,-600.08,-453.96,-1159.98
1426,1.0,0.0,1.0,0.917,0.919,67.21,90.06,-29584.56,7617.44,10729.2,162.92,-328.96,-614.98
1446,1.0,0.0,1.0,0.922,1.0,67.34,90.05,-29568.56,7521.44,10885.2,442.92,-306.96,-64.98
1466,0.936,0.0,1.0,0.933,0.551,67.43,90.0,-29356.56,7661.44,10889.2,129.92,-172.96,-195.98
1486,1.0,0.0,1.0,0.928,0.289,67.56,89.8,-29528.56,7573.44,10909.2,-712.08,-160.96,-612.98
1505,1.0,0.0,1.0,0.911,0.656,67.7,89.64,-29488.56,7409.44,10645.2,-976.08,-195.96,-655.98
1524,1.0,0.0,1.0,0.906,0.604,67.81,89.6,-28892.56,7405.44,10545.2,-416.08,-94.96,-269.98
1543,1.0,0.0,1.0,0.89,0.604,68.03,89.69,-29360.56,7393.44,10445.2,140.92,466.04,-112.98
1563,0.928,0.0,1.0,0.884,0.604,68.17,89.82,-29812.56,7701.44,10357.2,-279.08,96.04,-159.98
1583,1.0,0.0,1.0,0.879,0.341,68.23,89.87,-29404.56,7557.44,10377.2,-551.08,-420.96,67.02
1603,1.0,0.044,1.0,0.9,0.814,68.25,89.86,-29232.56,7721.44,10625.2,-205.08,-288.96,384.02
1623,1.0,0.0,1.0,0.873,0.919,68.23,89.76,-29588.56,8185.44,10917.2,-93.08,-114.96,-72.98
1642,1.0,0.0,1.0,0.857,0.709,68.23,89.77,-29452.56,7889.44,10493.2,-211.08,-299.96,2.02
1662,1.0,0.0,1.0,0.862,0.866,68.25,89.84,-29472.56,7885.44,10489.2,-38.08,-275.96,238.02
1682,1.0,0.0,1.0,0.873,0.656,68.26,89.85,-29316.56,8293.44,10501.2,-501.08,318.04,-781.98
1702,1.0,0.0,1.0,0.873,0.394,68.36,89.7,-29860.56,7629.44,10589.2,-858.08,-72.96,-894.98
1721,1.0,0.0,1.0,0.857,0.814,68.38,89.6,-29676.56,7609.44,10549.2,-354.08,-594.96,-387.98
1740,1.0,0.0,1.0,0.873,0.0,68.34,89.45,-29440.56,7701.44,10613.2,-495.08,-687.96,-325.98
1759,1.0,0.037,1.0,0.857,0.656,68.33,89.25,-29432.56,7597.44,10677.2,-599.08,-592.96,-309.98
1778,1.0,0.0,1.0,0.857,0.184,68.31,89.17,-29360.56,7741.44,10629.2,-25.08,-496.96,24.02
1798,1.0,0.0,1.0,0.857,0.919,68.31,89.02,-29384.56,7817.44,10781.2,-308.08,-181.96,-229.98
1817,1.0,0.0,1.0,0.868,0.289,68.35,88.71,-29848.56,7889.44,11081.2,-228.08,35.04,-311.98
1837,1.0,0.0,1.0,0.895,1.0,68.35,88.49,-29816.56,7913.44,10937.2,-389.08,-291.96,-211.98
1856,1.0,0.0,1.0,0.873,0.814,68.35,88.22,-29604.56,7637.44,10921.2,-248.08,-381.96,-76.98
1875,1.0,0.044,1.0,0.857,0.446,68.4,87.99,-29408.56,7577.44,10845.2,-225.08,-99.96,8.02
1895,1.0,0.059,1.0,0.884,0.866,68.46,87.81,-29508.56,7569.44,10869.2,-53.08,-38.96,206.02
1915,1.0,0.0,1.0,0.884,0.604,68.49,87.67,-29276.56,7577.44,10769.2,6.92,-176.96,48.02
1935,1.0,0.0,1.0,0.879,0.026,68.55,87.46,-29620.56,7589.44,10837.2,-272.08,-42.96,-196.98
1954,1.0,0.0,1.0,0.852,0.499,68.61,87.17,-29600.56,7349.44,10961.2,16.92,-227.96,84.02
1974,1.0,0.0,1.0,0.857,0.814,68.64,86.99,-29744.56,7441.44,10821.2,5.92,-381.96,93.02
1994,1.0,0.007,1.0,0.862,0.656,68.64,86.84,-29712.56,7589.44,10785.2,-20.08,-492.96,276.02
2014,1.0,0.0,1.0,0.846,0.604,68.62,86.61,-29512.56,7577.44,10997.2,109.92,-425.96,516.02
2034,1.0,0.0,0.896,0.852,0.656,68.58,86.36,-29484.56,7801.44,11105.2,72.92,-257.96,385.02
2054,1.0,0.0,1.0,0.862,0.499,68.59,86.12,-29536.56,7777.44,10953.2,-313.08,-84.96,-92.98
2073,1.0,0.0,1.0,0.841,0.499,68.68,85.75,-29596.56,7317.44,10969.2,-576.08,56.04,-236.98
2093,1.0,0.0,1.0,0.879,0.866,68.75,85.53,-29464.56,7485.44,11005.2,259.92,175.04,120.02
2113,1.0,0.0,1.0,0.852,0.341,68.79,85.42,-29584.56,7873.44,10833.2,138.92,266.04,89.02
2133,1.0,0.0,1.0,0.814,0.604,68.81,85.27,-29588.56,7701.44,10797.2,-103.08,26.04,95.02
2153,1.0,0.0,1.0,0.868,0.604,68.78,85.07,-29436.56,7753.44,10865.2,-255.08,-232.96,9.02
2173,1.0,0.0,1.0,0.852,0.289,68.74,84.88,-29372.56,7585.44,10785.2,-337.08,-411.96,-167.98
2192,1.0,0.0,1.0,0.852,0.551,68.73,84.74,-29340.56,7533.44,10669.2,-164.08,-275.96,-139.98
2211,1.0,0.0,1.0,0.873,0.866,68.72,84.64,-29356.56,7701.44,10741.2,178.92,-105.96,-4.98
2231,1.0,0.0,1.0,0.852,0.551,68.71,84.39,-29664.56,7509.44,10981.2,7.92,-382.96,-130.98
2251,1.0,0.0,1.0,0.873,0.499,68.67,84.14,-29496.56,7581.44,10865.2,-496.08,-465.96,-224.98
2270,1.0,0.0,1.0,0.852,0.499,68.67,83.79,-29468.56,7261.44,10937.2,-567.08,-515.96,66.02
2290,1.0,0.0,1.0,0.873,0.604,68.63,83.54,-29476.56,7489.44,11089.2,211.92,-443.96,517.02
2310,1.0,0.0,1.0,0.852,0.604,68.56,83.36,-29432.56,7853.44,11129.2,416.92,-294.96,473.02
2330,1.0,0.0,1.0,0.873,0.604,68.49,83.1,-29764.56,7953.44,11241.2,85.92,-327.96,160.02
2350,1.0,0.0,1.0,0.846,0.656,68.44,82.78,-29320.56,7633.44,11097.2,-421.08,-329.96,-121.98
2369,1.0,0.0,1.0,0.846,0.604,68.5,82.28,-29292.56,7165.44,11309.2,-498.08,60.04,51.02
2389,1.0,0.0,0.929,0.846,0.499,68.63,81.91,-29516.56,7057.44,11321.2,413.92,308.04,861.02
2409,1.0,0.0,1.0,0.862,0.866,68.69,81.91,-29548.56,7565.44,10949.2,1233.92,263.04,1691.02
2429,1.0,0.0,1.0,0.835,0.289,68.66,82.03,-29280.56,7997.44,10813.2,1313.92,162.04,1865.02
2449,1.0,0.0,1.0,0.857,0.866,68.57,82.03,-29516.56,8317.44,10913.2,684.92,48.04,1208.02
2469,1.0,0.0,1.0,0.857,0.866,68.44,81.86,-29464.56,8257.44,10929.2,-394.08,-280.96,224.02
2489,1.0,0.0,1.0,0.852,1.0,68.3,81.62,-29436.56,8285.44,11105.2,-487.08,-246.96,-197.98
2508,1.0,0.0,0.469,0.879,0.604,68.19,81.42,-29404.56,8001.44,11037.2,-81.08,-388.96,50.02
2528,1.0,0.0,1.0,0.83,1.0,68.1,81.29,-29288.56,7961.44,10905.2,-7.08,-269.96,139.02
2548,1.0,0.0,1.0,0.852,0.289,68.02,81.05,-29352.56,7933.44,11169.2,-8.08,-232.96,192.02
2568,1.0,0.0,1.0,0.852,0.656,67.91,80.85,-29264.56,7993.44,11061.2,-185.08,-353.96,204.02
2588,1.0,0.0,1.0,0.862,0.079,67.83,80.65,-29308.56,8025.44,11037.2,-191.08,-161.96,231.02
2608,1.0,0.0,1.0,0.841,1.0,67.74,80.44,-29396.56,8097.44,11261.2,164.92,-148.96,513.02
2628,1.0,0.0,1.0,0.862,0.184,67.62,80.25,-29340.56,8237.44,11221.2,150.92,-268.96,475.02
2648,1.0,0.0,1.0,0.857,0.656,67.53,80.05,-29224.56,7865.44,11073.2,-118.08,-382.96,463.02
2668,1.0,0.0,1.0,0.857,0.604,67.43,79.95,-29300.56,8229.44,11097.2,377.92,-130.96,387.02
2688,1.0,0.0,1.0,0.835,0.919,67.34,79.78,-29200.56,8065.44,11125.2,116.92,-243.96,270.02
2708,1.0,0.0,1.0,0.852,0.866,67.24,79.74,-28848.56,8237.44,10929.2,285.92,21.04,136.02
2728,1.0,0.0,1.0,0.852,1.0,67.19,79.51,-29460.56,8021.44,11045.2,-490.08,-129.96,-114.98
2747,1.0,0.0,1.0,0.846,0.551,67.08,79.39,-29240.56,8089.44,10893.2,-248.08,-442.96,102.02
2767,1.0,0.0,1.0,0.862,0.604,66.98,79.29,-29136.56,8057.44,10901.2,-37.08,-419.96,267.02
2787,1.0,0.0,0.896,0.873,0.814,66.92,79.2,-29200.56,7865.44,11081.2,648.92,-328.96,363.02
2807,1.0,0.0,1.0,0.835,0.604,66.78,79.23,-29308.56,8665.44,11065.2,785.92,-55.96,89.02
2827,1.0,0.0,1.0,0.852,1.0,66.67,79.02,-29604.56,8285.44,11329.2,188.92,-421.96,-153.98
2847,1.0,0.0,1.0,0.841,0.709,66.57,78.75,-29404.56,8165.44,11209.2,-521.08,-364.96,-572.98
2866,1.0,0.0,1.0,0.852,1.0,66.51,78.39,-29324.56,7841.44,11297.2,-592.08,-435.96,-521.98
2885,1.0,0.0,0.896,0.841,0.604,66.51,78.06,-29152.56,7433.44,11293.2,-119.08,-356.96,63.02
2905,1.0,0.0,0.0,0.852,0.499,66.53,77.98,-29188.56,7809.44,11173.2,886.92,105.04,834.02
2925,1.0,0.081,1.0,0.857,0.919,66.55,77.88,-29432.56,7805.44,11337.2,1154.92,108.04,1086.02
2945,1.0,0.0,1.0,0.884,0.866,66.43,77.74,-29664.56,8545.44,11437.2,528.92,-248.96,766.02
2965,1.0,0.0,1.0,0.83,0.656,66.31,77.5,-29244.56,8257.44,11245.2,-452.08,-375.96,322.02
2985,1.0,0.0,1.0,0.841,0.236,66.25,77.22,-29112.56,8141.44,11321.2,-447.08,-84.96,117.02
