timestamp,flex_1,flex_2,flex_3,flex_4,flex_5,kalman_pitch,kalman_roll,acc_x,acc_y,acc_z,gyro_x,gyro_y,gyro_z
0,0.994,0.405,0.0,0.516,1.0,37.88,-93.69,5951.92,-5472.32,18437.68,-92.92,524.8,496.16
19,0.609,0.371,0.0,0.46,1.0,26.76,-64.8,6023.92,-5272.32,18613.68,-322.92,1460.8,302.16
39,1.0,0.32,0.0,0.497,1.0,21.0,-50.27,6167.92,-5532.32,18553.68,-642.92,1817.8,42.16
60,0.737,0.32,0.0,0.466,1.0,17.77,-41.4,5743.92,-5472.32,18193.68,-698.92,1241.8,-288.84
79,1.0,0.311,0.0,0.479,1.0,15.28,-35.23,6091.92,-5356.32,18909.68,-249.92,757.8,7.16
100,0.737,0.217,0.0,0.466,1.0,13.3,-30.99,6391.92,-5800.32,18461.68,-155.92,618.8,333.16
118,0.865,0.32,0.0,0.441,1.0,11.52,-28.23,7175.92,-7008.32,18429.68,433.08,1334.8,56.16
140,0.224,0.243,0.0,0.447,1.0,10.72,-25.69,5955.92,-6652.32,19369.68,1377.08,2294.8,440.16
159,0.994,0.286,0.0,0.491,1.0,9.97,-23.32,7459.92,-6612.32,18933.68,3554.08,5485.8,-297.84
181,1.0,0.311,1.0,0.454,1.0,10.84,-21.26,5547.92,-7116.32,20845.68,4109.08,11689.8,1697.16
200,1.0,0.294,0.0,0.429,0.0,12.53,-19.59,4591.92,-7332.32,20441.68,3866.08,15866.8,146.16
221,0.481,0.243,0.0,0.548,1.0,14.24,-17.87,4651.92,-6680.32,19657.68,4558.08,16749.8,1231.16
240,1.0,0.286,0.0,0.667,1.0,16.7,-15.57,3039.92,-4552.32,20753.68,5708.08,20259.8,3534.16
260,0.609,0.234,0.0,0.704,1.0,20.19,-14.08,-1344.08,-4432.32,21137.68,1316.08,22182.8,4689.16
280,1.0,0.209,0.0,0.999,1.0,23.91,-13.52,-2752.08,-5212.32,20669.68,-2917.92,23684.8,5738.16
300,1.0,0.269,0.0,1.0,1.0,28.39,-13.74,-4440.08,-7396.32,20173.68,-4371.92,28803.8,3350.16
320,0.737,0.251,1.0,1.0,1.0,33.03,-14.06,-6432.08,-7608.32,20101.68,-4857.92,30056.8,1344.16
340,0.609,0.175,0.0,1.0,1.0,37.39,-14.36,-8824.08,-4144.32,20105.68,-10152.92,27870.8,2155.16
360,1.0,0.226,0.0,1.0,1.0,41.13,-15.76,-8212.08,-5616.32,18489.68,-15456.92,24853.8,4855.16
379,1.0,0.226,0.0,1.0,1.0,44.36,-18.19,-8312.08,-8520.32,17529.68,-18195.92,22705.8,7268.16
400,0.737,0.234,0.0,1.0,1.0,47.9,-20.49,-11008.08,-9232.32,15829.68,-16334.92,23135.8,9776.16
420,0.224,0.183,0.0,1.0,1.0,51.28,-22.19,-10740.08,-6804.32,15389.68,-17141.92,22654.8,11441.16
441,0.994,0.081,0.0,1.0,0.314,54.5,-24.64,-10544.08,-6364.32,13885.68,-23200.92,21715.8,10782.16
460,1.0,0.183,0.0,1.0,1.0,57.14,-28.07,-7368.08,-8580.32,12637.68,-25845.92,20904.8,13081.16
479,1.0,0.217,0.0,1.0,1.0,59.69,-30.83,-6284.08,-9668.32,12353.68,-20332.92,22548.8,17780.16
500,0.865,0.166,0.0,1.0,1.0,62.54,-32.92,-8424.08,-8840.32,11129.68,-16965.92,22508.8,21527.16
521,0.865,0.439,0.0,1.0,1.0,65.14,-33.85,-8660.08,-5844.32,9809.68,-15788.92,19032.8,25150.16
540,0.224,0.123,0.0,1.0,1.0,67.19,-35.37,-7152.08,-6200.32,8709.68,-18160.92,16054.8,27140.16
560,0.481,0.098,0.0,1.0,1.0,68.82,-36.54,-5544.08,-5804.32,8101.68,-16952.92,14041.8,28696.16
581,0.096,0.081,0.0,1.0,1.0,70.67,-36.97,-3332.08,-4872.32,6297.68,-13945.92,14430.8,29982.16
600,1.0,0.004,0.0,1.0,1.0,72.6,-36.53,-2876.08,-4404.32,5773.68,-10305.92,14838.8,30919.16
621,1.0,0.0,0.0,1.0,1.0,74.5,-32.74,-2564.08,-1640.32,5061.68,-7317.92,15599.8,30266.16
639,0.865,0.0,0.0,1.0,1.0,76.05,-27.59,-2032.08,-716.32,3969.68,-6838.92,14516.8,29867.16
661,1.0,0.0,0.0,1.0,1.0,76.91,-21.51,-1264.08,755.68,3317.68,-5301.92,13740.8,28443.16
681,0.994,0.0,0.0,1.0,1.0,77.29,-15.06,-900.08,1599.68,2857.68,-3704.92,12913.8,26223.16
700,0.865,0.0,0.0,1.0,1.0,76.63,-8.47,115.92,4627.68,2265.68,-3333.92,12548.8,23940.16
720,0.994,0.0,0.0,1.0,1.0,75.42,-1.95,1111.92,5719.68,1185.68,-4488.92,11958.8,21768.16
739,1.0,0.0,0.0,1.0,1.0,73.91,4.55,1351.92,6675.68,1177.68,-2722.92,11019.8,19873.16
760,1.0,0.0,0.0,1.0,1.0,71.78,10.99,1699.92,10459.68,1141.68,-646.92,9783.8,18128.16
779,1.0,0.0,0.0,1.0,1.0,69.12,17.4,2535.92,13259.68,377.68,238.08,7965.8,16324.16
799,1.0,0.0,0.0,1.0,1.0,65.69,23.79,4579.92,18455.68,-262.32,1982.08,5378.8,12718.16
819,1.0,0.0,0.0,1.0,1.0,61.69,30.2,6255.92,22607.68,-2454.32,2536.08,2461.8,7771.16
841,0.737,0.14,0.0,1.0,1.0,57.39,36.69,5831.92,21811.68,-3642.32,3942.08,-1007.2,-1231.84
860,1.0,0.012,0.0,1.0,1.0,52.72,43.38,6783.92,21879.68,-4318.32,6744.08,-4077.2,-14875.84
881,1.0,0.0,0.0,1.0,1.0,47.54,49.05,9767.92,24879.68,-3842.32,2699.08,-6615.2,-27675.84
901,0.865,0.0,1.0,1.0,1.0,42.36,53.71,8707.92,17407.68,-3654.32,-4014.92,-8646.2,-32570.84
921,0.994,0.004,0.0,1.0,1.0,37.56,57.76,5899.92,10867.68,409.68,-3625.92,-11098.2,-32570.84
940,0.994,0.0,0.0,1.0,0.0,33.94,61.59,2731.92,5195.68,3237.68,1247.08,-12913.2,-32570.84
961,1.0,0.0,0.0,1.0,1.0,31.29,63.81,1831.92,1367.68,5041.68,-148.92,-14140.2,-32570.84
980,1.0,0.0,0.0,1.0,1.0,29.49,59.66,1059.92,-5948.32,6577.68,-7446.92,-13191.2,-32570.84
1001,1.0,0.0,1.0,1.0,1.0,26.8,53.76,571.92,-11188.32,8745.68,-11957.92,-13048.2,-32570.84
1020,1.0,0.0,0.0,1.0,1.0,23.18,47.16,1035.92,-23528.32,8721.68,-9350.92,-13664.2,-32570.84
1041,0.737,0.0,0.0,1.0,1.0,19.65,42.25,527.92,-31584.32,9053.68,2362.08,-13169.2,-32570.84
1060,0.994,0.0,1.0,1.0,1.0,16.27,38.62,295.92,-35216.32,8257.68,11373.08,-12988.2,-26792.84
1081,0.994,0.0,0.0,1.0,1.0,13.42,35.41,187.92,-35100.32,10689.68,12199.08,-10696.2,-14228.84
1101,1.0,0.0,1.0,1.0,1.0,11.27,31.6,-2476.08,-36524.32,13149.68,6320.08,-8282.2,-2612.84
1120,1.0,0.0,0.0,1.0,0.041,9.69,27.83,-5276.08,-36524.32,14009.68,5456.08,-6741.2,8554.16
1141,1.0,0.0,0.0,1.0,1.0,8.93,24.57,-6888.08,-33508.32,13881.68,7606.08,-3327.2,17376.16
1160,0.865,0.0,0.0,1.0,1.0,9.26,21.17,-6820.08,-28648.32,13101.68,5226.08,2449.8,21927.16
1181,1.0,0.0,0.0,1.0,1.0,10.67,17.36,-6128.08,-21736.32,12737.68,-747.92,7868.8,25432.16
1200,0.353,0.0,0.0,1.0,1.0,12.72,12.88,-5892.08,-17348.32,11845.68,-8225.92,10558.8,29477.16
1220,0.353,0.0,0.0,1.0,1.0,15.18,7.61,-5092.08,-14760.32,9797.68,-14572.92,12211.8,32435.16
1241,0.994,0.0,0.0,1.0,1.0,18.14,2.79,-4800.08,-11336.32,8517.68,-14844.92,13396.8,32964.16
1260,0.865,0.0,0.0,1.0,1.0,21.5,-0.61,-3816.08,-7800.32,7469.68,-11281.92,13715.8,32964.16
1281,1.0,0.0,0.0,1.0,1.0,24.9,-2.27,-2652.08,-5700.32,6597.68,-5440.92,12944.8,32964.16
1300,0.481,0.0,0.0,1.0,1.0,28.1,-1.11,-1908.08,-3192.32,6481.68,1042.08,12211.8,32964.16
1320,1.0,0.0,0.0,1.0,1.0,30.09,3.12,299.92,1331.68,5365.68,2886.08,11104.8,32964.16
1339,1.0,0.0,0.0,1.0,1.0,30.6,7.93,2623.92,5923.68,4245.68,840.08,10797.8,32964.16
1360,1.0,0.0,0.0,1.0,1.0,30.67,12.81,4491.92,7819.68,3665.68,962.08,12423.8,32964.16
1380,0.353,0.0,0.0,1.0,0.041,30.12,17.28,5783.92,11423.68,2793.68,-2290.92,11162.8,32964.16
1400,0.994,0.0,0.0,1.0,1.0,29.03,21.96,7627.92,14715.68,1113.68,-1667.92,9869.8,32964.16
1420,1.0,0.0,0.0,1.0,1.0,27.78,27.22,9991.92,20007.68,-890.32,2187.08,10497.8,32964.16
1440,0.865,0.0,0.0,1.0,1.0,26.42,32.02,10971.92,24779.68,-2618.32,-257.92,9757.8,27548.16
1461,1.0,0.0,0.0,1.0,1.0,24.63,36.41,13675.92,29010.68,-3210.32,-1672.92,7794.8,18255.16
1481,0.994,0.0,0.0,1.0,1.0,22.13,41.25,14727.92,29010.68,-4682.32,1764.08,3078.8,7388.16
1499,0.994,0.0,0.0,1.0,1.0,18.99,46.81,15243.92,29010.68,-5346.32,7779.08,-1813.2,-7650.84
1520,0.994,0.047,0.0,1.0,1.0,15.44,52.09,16923.92,29010.68,-5090.32,7641.08,-4506.2,-22005.84
1541,0.994,0.0,0.0,1.0,1.0,11.43,56.44,17927.92,29010.68,-4862.32,2974.08,-8321.2,-32341.84
1560,0.994,0.0,0.0,1.0,1.0,7.3,60.26,17671.92,26211.68,-3118.32,1320.08,-9909.2,-32570.84
1580,0.994,0.0,0.0,1.0,1.0,2.76,63.92,15327.92,19879.68,-1306.32,1968.08,-14167.2,-32570.84
1601,0.737,0.0,0.0,1.0,1.0,-1.73,67.58,11499.92,12515.68,697.68,4066.08,-16713.2,-32570.84
1621,1.0,0.0,0.0,1.0,1.0,-5.85,70.57,8075.92,151.68,2493.68,2992.08,-16101.2,-32570.84
1640,0.609,0.0,0.0,1.0,1.0,-7.43,65.14,2795.92,-12716.32,6821.68,1411.08,-13504.2,-32570.84
1660,0.609,0.0,0.0,1.0,1.0,-8.61,60.3,3975.92,-12596.32,8145.68,1806.08,-9014.2,-32570.84
1680,0.994,0.0,0.0,1.0,1.0,-10.35,55.85,5171.92,-11684.32,10625.68,-1302.92,-11019.2,-32570.84
1701,1.0,0.0,0.0,1.0,1.0,-13.06,51.2,6719.92,-21448.32,10601.68,3993.08,-15414.2,-32570.84
1721,0.994,0.0,0.0,1.0,0.0,-15.52,47.18,5179.92,-31176.32,10749.68,10168.08,-15649.2,-30678.84
1740,1.0,0.0,0.0,1.0,1.0,-17.43,43.49,5715.92,-32924.32,10657.68,12099.08,-12467.2,-28542.84
1761,1.0,0.0,0.0,1.0,1.0,-18.33,39.74,5043.92,-28692.32,10837.68,10094.08,-6941.2,-26639.84
1781,1.0,0.0,0.0,1.0,1.0,-18.35,35.56,483.92,-27904.32,11809.68,5547.08,-4861.2,-19951.84
1800,0.865,0.0,0.0,1.0,1.0,-18.07,31.2,-1464.08,-28208.32,10557.68,4357.08,-4385.2,-13266.84
1821,0.994,0.0,0.0,1.0,1.0,-17.52,26.66,-2984.08,-26880.32,9213.68,2984.08,-4143.2,-8252.84
1840,1.0,0.0,0.0,1.0,1.0,-16.69,22.38,-3264.08,-24932.32,9241.68,3197.08,-3080.2,-5251.84
1860,1.0,0.0,1.0,1.0,1.0,-15.47,18.36,-3276.08,-21384.32,9237.68,2911.08,-1689.2,-3341.84
1881,1.0,0.064,0.0,1.0,1.0,-13.9,14.08,-3060.08,-19220.32,8265.68,430.08,-93.2,-2003.84
1900,1.0,0.0,1.0,1.0,1.0,-12.07,9.6,-3064.08,-18912.32,7597.68,-1355.92,1680.8,-1408.84
1921,1.0,0.0,0.0,1.0,1.0,-10.13,5.19,-3944.08,-18300.32,7393.68,-1961.92,1734.8,-377.84
1939,0.353,0.0,0.0,1.0,1.0,-8.33,1.04,-3972.08,-17848.32,7377.68,-1490.92,785.8,189.16
1959,1.0,0.14,0.0,1.0,1.0,-6.66,-2.75,-3688.08,-16948.32,7205.68,-151.92,-19.2,405.16
1979,1.0,0.0,0.0,1.0,0.0,-5.06,-6.26,-3692.08,-16408.32,7221.68,541.08,-587.2,579.16
2000,1.0,0.0,0.0,1.0,1.0,-3.44,-9.51,-4012.08,-16332.32,7373.68,1244.08,-443.2,735.16
2021,0.994,0.089,0.0,1.0,1.0,-1.91,-12.33,-4084.08,-15904.32,8077.68,2169.08,-860.2,1109.16
2040,0.865,0.0,0.0,1.0,1.0,-0.47,-15.0,-3444.08,-15448.32,7977.68,2396.08,-972.2,1217.16
2061,0.737,0.0,0.0,1.0,1.0,1.09,-17.54,-3648.08,-14764.32,7997.68,2238.08,-520.2,1025.16
2080,0.737,0.0,0.0,1.0,1.0,2.74,-20.21,-3376.08,-14140.32,7705.68,646.08,50.8,551.16
2099,0.737,0.0,0.848,1.0,0.0,4.42,-23.03,-3400.08,-14136.32,7485.68,-731.92,493.8,160.16
2119,0.865,0.0,0.0,1.0,1.0,6.01,-25.87,-3440.08,-14460.32,7325.68,-1143.92,438.8,191.16
2139,1.0,0.0,1.0,1.0,1.0,7.49,-28.65,-3336.08,-14764.32,6861.68,-529.92,118.8,252.16
2159,1.0,0.0,0.0,1.0,1.0,8.95,-31.18,-3472.08,-14368.32,6853.68,206.08,-71.2,221.16
2179,0.994,0.0,0.0,1.0,1.0,10.32,-33.61,-3476.08,-14592.32,6781.68,520.08,-297.2,82.16
2200,1.0,0.0,0.0,1.0,1.0,11.59,-35.8,-3592.08,-14516.32,7305.68,702.08,-635.2,58.16
2220,0.994,0.0,0.0,1.0,1.0,12.78,-37.85,-3452.08,-14640.32,7413.68,1037.08,-763.2,145.16
2239,0.224,0.0,0.0,1.0,0.0,13.97,-39.74,-3424.08,-14588.32,7621.68,1176.08,-382.2,7.16
2260,1.0,0.0,0.0,1.0,1.0,15.12,-41.63,-3452.08,-14708.32,7553.68,912.08,-426.2,-2.84
2279,1.0,0.0,0.0,1.0,1.0,16.22,-43.46,-3536.08,-14864.32,7629.68,834.08,-436.2,-52.84
2299,1.0,0.0,0.0,1.0,1.0,17.26,-45.15,-3600.08,-15044.32,8093.68,724.08,-417.2,-14.84
2319,1.0,0.0,0.0,1.0,1.0,18.3,-46.85,-3436.08,-14784.32,7825.68,383.08,-309.2,25.16
2339,1.0,0.0,0.0,1.0,1.0,19.37,-48.56,-3692.08,-14884.32,7913.68,-209.92,-39.2,-15.84
2361,1.0,0.0,0.0,1.0,1.0,20.36,-50.17,-3764.08,-15076.32,8157.68,-193.92,-166.2,-17.84
2378,0.609,0.0,0.0,1.0,1.0,21.34,-51.67,-3548.08,-14752.32,8221.68,-232.92,1.8,19.16
2400,0.224,0.0,0.0,1.0,1.0,22.4,-53.23,-3644.08,-14704.32,7893.68,-689.92,448.8,-58.84
2420,1.0,0.0,0.0,1.0,1.0,23.37,-54.73,-3632.08,-14992.32,7917.68,-525.92,367.8,-71.84
2440,1.0,0.0,0.0,1.0,1.0,24.33,-56.16,-3576.08,-14768.32,7765.68,-443.92,340.8,-41.84
2459,1.0,0.0,0.0,1.0,1.0,25.22,-57.5,-3652.08,-14888.32,7737.68,-201.92,122.8,12.16
2479,1.0,0.0,0.0,1.0,1.0,26.07,-58.76,-3496.08,-14920.32,7613.68,217.08,122.8,-72.84
2499,0.609,0.0,0.0,1.0,1.0,26.9,-59.92,-3528.08,-14660.32,7665.68,215.08,31.8,-34.84
2519,0.865,0.0,1.0,1.0,1.0,27.65,-61.01,-3636.08,-14876.32,7781.68,344.08,-262.2,89.16
2540,0.737,0.0,0.0,1.0,0.0,28.32,-61.99,-3456.08,-14812.32,7949.68,449.08,-410.2,-17.84
2559,1.0,0.0,0.0,1.0,1.0,28.97,-62.98,-3328.08,-15160.32,7769.68,581.08,-131.2,-56.84
2579,0.609,0.0,0.0,1.0,1.0,29.65,-63.82,-3540.08,-15056.32,7969.68,926.08,19.8,82.16
2599,0.865,0.0,0.0,1.0,0.041,30.34,-64.68,-3376.08,-14732.32,7765.68,575.08,129.8,151.16
2619,1.0,0.0,0.0,1.0,1.0,31.05,-65.63,-3624.08,-14724.32,7685.68,-246.92,157.8,92.16
2640,0.994,0.0,0.0,1.0,1.0,31.67,-66.56,-3676.08,-14968.32,7677.68,-213.92,-111.2,110.16
2659,0.737,0.0,0.0,1.0,1.0,32.22,-67.44,-3364.08,-14984.32,7389.68,145.08,-322.2,185.16
2679,0.865,0.0,0.0,1.0,1.0,32.78,-68.23,-3456.08,-14832.32,7505.68,262.08,-206.2,116.16
2700,0.865,0.0,0.0,1.0,1.0,33.28,-68.92,-3452.08,-14952.32,7853.68,246.08,-322.2,41.16
2720,0.609,0.0,0.0,1.0,1.0,33.79,-69.54,-3524.08,-14912.32,8029.68,228.08,-146.2,176.16
2740,0.994,0.012,0.0,1.0,1.0,34.32,-70.19,-3596.08,-14864.32,7853.68,-68.92,39.8,245.16
2759,0.865,0.0,0.0,1.0,0.177,34.84,-70.86,-3284.08,-14872.32,7745.68,-223.92,277.8,88.16
2780,1.0,0.0,0.0,1.0,1.0,35.4,-71.49,-3628.08,-14740.32,7749.68,-399.92,296.8,-74.84
2800,1.0,0.0,0.0,1.0,1.0,35.87,-72.12,-3584.08,-15060.32,7657.68,-244.92,103.8,-48.84
2819,0.737,0.0,0.0,1.0,1.0,36.36,-72.6,-3540.08,-14744.32,7781.68,125.08,198.8,-57.84
2839,0.865,0.0,0.0,1.0,1.0,36.83,-73.07,-3696.08,-14764.32,7753.68,50.08,41.8,-27.84
2860,1.0,0.0,0.0,1.0,1.0,37.22,-73.52,-3568.08,-14872.32,7749.68,97.08,-126.2,13.16
2879,0.737,0.0,0.0,1.0,1.0,37.55,-73.87,-3372.08,-14920.32,7817.68,438.08,-220.2,81.16
2899,0.994,0.0,0.0,1.0,1.0,37.88,-74.11,-3292.08,-14740.32,8049.68,615.08,-102.2,58.16
2919,0.737,0.0,0.0,1.0,1.0,38.25,-74.42,-3228.08,-14568.32,7749.68,293.08,55.8,-75.84
2940,0.865,0.0,0.0,1.0,1.0,38.69,-74.78,-3436.08,-14384.32,7629.68,-204.92,321.8,-313.84
2961,0.865,0.0,0.0,1.0,1.0,39.08,-75.22,-3564.08,-14768.32,7541.68,-493.92,258.8,-579.84
2981,0.481,0.0,0.0,1.0,1.0,39.39,-75.57,-3688.08,-15008.32,7765.68,-299.92,-48.2,-479.84
