timestamp,flex_1,flex_2,flex_3,flex_4,flex_5,kalman_pitch,kalman_roll,acc_x,acc_y,acc_z,gyro_x,gyro_y,gyro_z
0,0.0,0.745,0.274,0.47,0.663,-53.14,-30.62,342.8,-1147.76,13906.48,-507.38,-4329.3,215.06
20,0.004,0.738,0.213,0.452,0.81,-58.53,-39.72,810.8,-1579.76,14074.48,681.62,-1856.3,-380.94
39,0.002,0.745,0.365,0.452,0.566,-61.14,-42.81,434.8,-1191.76,14726.48,772.62,-581.3,-2073.94
58,0.0,0.752,0.244,0.445,0.663,-62.4,-45.28,-133.2,-1891.76,14890.48,703.62,-2109.3,-1925.94
76,0.0,0.745,0.335,0.448,0.712,-64.17,-48.37,454.8,-1375.76,13554.48,907.62,-3245.3,-1309.94
95,0.0,0.745,0.731,0.452,0.81,-65.17,-50.55,450.8,-2023.76,13978.48,774.62,-3428.3,-434.94
115,0.0,0.752,0.365,0.452,0.81,-65.63,-52.82,1250.8,-3091.76,13838.48,1304.62,-2348.3,-827.94
134,0.0,0.745,0.335,0.448,0.663,-65.49,-54.22,1330.8,-3587.76,14250.48,3207.62,298.7,-1135.94
153,0.0,0.745,0.335,0.431,0.615,-64.75,-54.46,654.8,-3803.76,15278.48,5424.62,2769.7,-1255.94
172,0.0,0.78,0.365,0.445,0.663,-63.78,-53.58,418.8,-3091.76,16318.48,6977.62,5003.7,-1559.94
190,0.0,0.801,0.274,0.438,0.615,-62.88,-52.54,-137.2,-2575.76,16386.48,7077.62,5354.7,-1267.94
209,0.0,0.787,0.335,0.445,0.712,-62.49,-51.49,-729.2,-2311.76,16474.48,6827.62,1748.7,326.06
229,0.0,0.794,0.304,0.452,0.859,-62.43,-50.47,-605.2,-1899.76,16862.48,4888.62,-247.3,560.06
248,0.0,0.794,0.274,0.445,0.663,-62.33,-49.9,-605.2,-2747.76,17242.48,3637.62,-1408.3,670.06
267,0.0,0.78,0.304,0.438,0.712,-62.27,-49.19,234.8,-3399.76,17810.48,5278.62,-2150.3,1073.06
286,0.002,0.801,0.183,0.452,0.761,-62.33,-47.82,1666.8,-2527.76,17986.48,8241.62,-1136.3,1948.06
304,0.002,0.787,0.274,0.441,0.663,-62.1,-45.65,2334.8,-1311.76,18526.48,10645.62,1891.7,2896.06
325,0.0,0.752,0.365,0.448,0.712,-61.24,-42.79,1422.8,-151.76,20478.48,10790.62,4219.7,3015.06
344,0.008,0.787,0.335,0.448,0.712,-60.1,-40.11,1170.8,-311.76,22274.48,9761.62,4543.7,2586.06
364,0.0,0.787,0.578,0.459,0.712,-59.02,-37.68,1898.8,-675.76,22846.48,9709.62,4469.7,2460.06
385,0.0,0.787,0.365,0.445,0.663,-57.92,-35.43,3254.8,-1195.76,22362.48,10798.62,6222.7,2809.06
405,0.0,0.787,0.304,0.441,0.663,-56.25,-33.12,2858.8,-1663.76,24006.48,11902.62,8961.7,2966.06
425,0.002,0.787,0.365,0.438,0.712,-54.33,-30.66,2498.8,-1495.76,25438.48,12791.62,10106.7,2362.06
445,0.002,0.801,0.061,0.438,0.663,-52.42,-28.17,3230.8,-435.76,24974.48,12569.62,11857.7,2058.06
465,0.0,0.773,0.365,0.438,0.615,-50.31,-25.87,2554.8,492.24,24962.48,10807.62,13849.7,857.06
484,0.0,0.787,0.335,0.438,0.663,-48.29,-24.13,1854.8,80.24,25838.48,8097.62,12919.7,-45.94
504,0.002,0.787,0.335,0.438,0.712,-46.75,-22.6,2166.8,-215.76,26862.48,7345.62,9747.7,556.06
525,0.006,0.78,0.304,0.441,0.663,-45.55,-21.26,3054.8,-1419.76,26506.48,8458.62,8628.7,1001.06
545,0.008,0.787,0.274,0.438,0.712,-44.25,-20.04,4474.8,-3143.76,25726.48,10724.62,10768.7,-2508.94
564,0.013,0.773,0.304,0.445,0.712,-42.63,-18.81,4802.8,-3831.76,26382.48,12421.62,13829.7,-4776.94
583,0.01,0.773,0.183,0.445,0.712,-40.73,-17.54,3718.8,-4199.76,27330.48,13159.62,15212.7,-4623.94
602,0.004,0.801,0.335,0.441,0.712,-38.89,-16.27,4082.8,-3443.76,27046.48,12971.62,16223.7,-3749.94
621,0.004,0.801,0.457,0.438,0.761,-37.04,-15.23,4214.8,-3259.76,26926.48,11639.62,17338.7,-2765.94
640,0.01,0.787,0.365,0.441,0.712,-35.13,-14.56,3838.8,-3635.76,26822.48,10010.62,18318.7,-1923.94
659,0.004,0.808,0.335,0.441,0.81,-33.12,-13.75,3682.8,-3307.76,26382.48,11178.62,20254.7,-273.94
678,0.006,0.794,0.244,0.441,0.712,-30.83,-12.52,2494.8,-1935.76,26494.48,12857.62,22701.7,500.06
698,0.002,0.843,0.578,0.445,0.81,-28.34,-11.11,1238.8,-619.76,27150.48,12019.62,23094.7,367.06
717,0.004,0.787,0.0,0.441,0.712,-26.06,-9.68,1578.8,-115.76,26334.48,12387.62,23567.7,73.06
737,0.002,0.815,0.335,0.441,0.712,-23.87,-8.32,254.8,692.24,24854.48,11841.62,24293.7,-155.94
757,0.006,0.794,0.365,0.431,0.761,-21.88,-7.0,-53.2,1612.24,22758.48,11143.62,25657.7,-925.94
777,0.0,0.801,0.03,0.441,0.81,-20.07,-5.56,-1249.2,3396.24,20806.48,9658.62,27925.7,-1578.94
796,0.0,0.801,0.365,0.438,0.663,-18.19,-3.83,-2917.2,5664.24,18526.48,5518.62,30513.7,-2929.94
815,0.0,0.787,0.791,0.438,0.468,-16.48,-2.81,-5789.2,6024.24,16898.48,-2080.38,29716.7,-4146.94
834,0.0,0.794,0.335,0.438,0.712,-15.54,-3.5,-7497.2,4100.24,15410.48,-7993.38,26896.7,-3951.94
853,0.0,0.682,0.365,0.441,0.761,-14.62,-6.18,-9869.2,1164.24,15738.48,-9125.38,21656.7,-3147.94
872,0.0,0.808,0.396,0.452,0.566,-13.8,-8.62,-11389.2,-455.76,16170.48,-3743.38,15574.7,-1621.94
891,0.002,0.787,0.365,0.434,0.566,-14.05,-9.37,-11277.2,1408.24,14798.48,4374.62,13038.7,-641.94
910,0.0,0.801,0.365,0.438,0.712,-14.62,-7.16,-11973.2,4504.24,14018.48,6728.62,12381.7,-380.94
929,0.004,0.801,0.365,0.441,0.81,-14.43,-4.81,-12909.2,5688.24,14782.48,3734.62,10859.7,-273.94
947,0.002,0.808,0.335,0.448,0.859,-13.8,-3.77,-13781.2,4668.24,16514.48,2149.62,8745.7,435.06
967,0.002,0.78,0.304,0.452,0.663,-13.09,-2.54,-14277.2,4964.24,17558.48,3430.62,6816.7,800.06
987,0.004,0.78,0.365,0.445,0.761,-12.36,-0.76,-14713.2,6196.24,17442.48,3729.62,5658.7,840.06
1007,0.002,0.787,0.365,0.438,0.712,-11.45,0.76,-15521.2,6576.24,18130.48,2131.62,4760.7,1085.06
1027,0.008,0.794,0.335,0.445,0.712,-10.62,2.11,-15825.2,6980.24,19334.48,1590.62,3707.7,1457.06
1047,0.004,0.787,0.183,0.445,0.761,-9.93,3.5,-15989.2,7776.24,20166.48,1275.62,2735.7,1162.06
1067,0.004,0.773,0.335,0.445,0.663,-9.31,4.59,-16849.2,7688.24,21078.48,519.62,766.7,701.06
1087,0.004,0.787,0.365,0.441,0.712,-9.01,5.48,-17193.2,7368.24,22750.48,1080.62,-1594.3,758.06
1107,0.004,0.78,0.274,0.438,0.81,-9.01,6.58,-16705.2,7416.24,24282.48,3388.62,-2563.3,1358.06
1127,0.008,0.78,0.396,0.445,0.712,-9.05,8.18,-15389.2,8812.24,24162.48,5129.62,-930.3,1339.06
1147,0.004,0.787,0.335,0.438,0.712,-8.67,9.47,-15829.2,10348.24,24562.48,1641.62,1246.7,521.06
1167,0.008,0.787,0.335,0.445,0.663,-8.17,9.86,-16529.2,8940.24,25154.48,-2059.38,1136.7,-530.94
1187,0.002,0.78,0.335,0.441,0.663,-7.83,10.21,-16317.2,8592.24,25494.48,-1632.38,498.7,-799.94
1207,0.004,0.787,0.365,0.445,0.81,-7.62,10.86,-16245.2,9792.24,25870.48,-820.38,-191.3,-1155.94
1226,0.01,0.801,0.091,0.445,0.761,-7.55,11.62,-15857.2,10772.24,26170.48,-933.38,-831.3,-1820.94
1245,0.006,0.773,0.365,0.445,1.0,-7.59,12.26,-15373.2,10720.24,26670.48,-1289.38,-1013.3,-2675.94
1265,0.008,0.773,0.365,0.445,0.761,-7.79,12.83,-14409.2,10644.24,26926.48,-1365.38,-912.3,-3865.94
1284,0.01,0.801,0.304,0.438,0.663,-8.05,13.34,-14117.2,10124.24,26746.48,-1103.38,-1097.3,-4824.94
1303,0.01,0.78,0.335,0.445,0.663,-8.21,13.87,-14845.2,9860.24,27742.48,-91.38,-1532.3,-5336.94
1322,0.01,0.78,0.304,0.438,0.663,-8.46,14.56,-14685.2,10460.24,28446.48,914.62,-2057.3,-5457.94
1342,0.01,0.78,0.365,0.438,0.712,-8.75,15.39,-14101.2,11480.24,28098.48,790.62,-1617.3,-5856.94
1360,0.004,0.78,0.365,0.452,0.81,-8.8,16.11,-14073.2,11724.24,27438.48,-257.38,-160.3,-6921.94
1380,0.008,0.78,0.365,0.452,0.712,-8.69,16.65,-14621.2,10880.24,27886.48,-276.38,264.7,-8270.94
1400,0.008,0.773,0.335,0.441,0.81,-8.73,17.34,-14765.2,10512.24,28166.48,1434.62,-811.3,-9239.94
1419,0.004,0.787,0.335,0.445,0.712,-8.85,18.31,-14537.2,11048.24,27178.48,2577.62,-1124.3,-10124.94
1439,0.004,0.773,0.274,0.427,0.663,-8.87,19.19,-14545.2,11256.24,27066.48,2096.62,-654.3,-11047.94
1458,0.004,0.787,0.365,0.438,0.663,-8.85,19.72,-14605.2,10144.24,26886.48,1063.62,-469.3,-12008.94
1478,0.006,0.78,0.365,0.441,0.615,-8.86,20.04,-14805.2,8844.24,26854.48,1105.62,-784.3,-12990.94
1498,0.006,0.773,0.396,0.438,0.663,-8.86,20.31,-15001.2,8524.24,27050.48,1359.62,-1037.3,-13911.94
1518,0.006,0.773,0.487,0.438,0.761,-8.95,20.49,-14789.2,8276.24,26822.48,1051.62,-1448.3,-14375.94
1538,0.0,0.773,0.335,0.431,0.712,-9.05,20.46,-14429.2,7280.24,26370.48,755.62,-1066.3,-15005.94
1557,0.004,0.78,0.304,0.427,0.615,-9.0,20.2,-15245.2,5920.24,26782.48,1092.62,-1238.3,-15714.94
1577,0.004,0.773,0.274,0.438,0.663,-9.03,20.04,-15621.2,5232.24,27074.48,2625.62,-2244.3,-15654.94
1598,0.002,0.759,0.335,0.445,0.761,-9.15,20.19,-15073.2,5816.24,26490.48,3965.62,-2212.3,-15586.94
1617,0.004,0.78,0.335,0.441,0.761,-9.17,20.24,-14405.2,6396.24,26150.48,2552.62,-799.3,-15938.94
1637,0.004,0.787,0.335,0.438,0.81,-9.1,19.62,-14769.2,4952.24,26258.48,-23.38,-623.3,-16730.94
1657,0.002,0.78,0.365,0.441,0.81,-9.05,18.67,-15337.2,3404.24,26478.48,-410.38,-1714.3,-16878.94
1675,0.004,0.78,0.365,0.431,0.712,-9.09,17.82,-15477.2,2956.24,26570.48,696.62,-2546.3,-16535.94
1695,0.002,0.745,0.304,0.441,0.663,-9.15,17.05,-15653.2,2968.24,26418.48,1034.62,-2863.3,-16256.94
1716,0.002,0.787,0.365,0.441,0.859,-9.14,16.05,-16241.2,1424.24,27198.48,1114.62,-3183.3,-15765.94
1736,0.002,0.703,0.365,0.438,0.712,-9.12,15.02,-16613.2,-223.76,27730.48,2565.62,-3494.3,-14851.94
1754,0.0,0.759,0.274,0.431,0.712,-8.89,14.18,-16857.2,92.24,27390.48,3609.62,-2644.3,-13462.94
1773,0.004,0.759,0.365,0.438,0.663,-8.47,13.18,-17441.2,104.24,27470.48,2193.62,-2005.3,-12802.94
1794,0.0,0.794,0.335,0.438,0.712,-8.17,11.92,-17457.2,-799.76,28238.48,911.62,-2488.3,-11317.94
1813,0.002,0.773,0.365,0.441,0.81,-7.78,10.73,-17509.2,-71.76,28058.48,409.62,-2126.3,-10045.94
1831,0.0,0.752,0.274,0.438,0.81,-7.21,9.49,-18085.2,268.24,27970.48,-754.38,-1415.3,-9484.94
1850,0.004,0.752,0.365,0.438,0.859,-6.55,8.09,-19093.2,-887.76,28430.48,-978.38,-1682.3,-8983.94
1869,0.004,0.773,0.365,0.434,0.712,-6.07,7.0,-18829.2,-2083.76,28826.48,2071.62,-2383.3,-8122.94
1888,0.01,0.598,0.365,0.427,0.81,-5.54,6.76,-18409.2,904.24,28246.48,4827.62,-1775.3,-6585.94
1908,0.004,0.78,0.365,0.427,0.81,-4.87,6.44,-18921.2,1716.24,27878.48,3163.62,-1255.3,-6430.94
1928,0.004,0.787,0.365,0.431,0.761,-4.21,5.8,-18721.2,564.24,27654.48,2302.62,-963.3,-5880.94
1948,0.008,0.773,0.091,0.438,0.712,-3.5,5.4,-18581.2,1700.24,27386.48,2521.62,-457.3,-5052.94
1968,0.002,0.766,0.335,0.438,0.712,-2.75,4.76,-19201.2,1196.24,27102.48,1463.62,-799.3,-4677.94
1988,0.004,0.787,0.365,0.441,0.712,-2.24,4.34,-19841.2,296.24,27686.48,3854.62,-2779.3,-3655.94
2009,0.004,0.78,0.274,0.438,0.81,-2.0,4.84,-18637.2,2856.24,27598.48,7060.62,-3315.3,-2247.94
2028,0.004,0.78,0.335,0.431,0.712,-1.67,5.53,-17585.2,5484.24,26958.48,5488.62,-1630.3,-2032.94
2048,0.004,0.794,0.365,0.424,0.663,-1.01,5.45,-18101.2,4704.24,27038.48,1309.62,99.7,-2792.94
2068,0.008,0.766,0.365,0.441,0.712,-0.32,4.84,-18629.2,3236.24,27270.48,-527.38,-100.3,-2492.94
2087,0.008,0.759,0.274,0.438,0.615,0.27,4.38,-18349.2,3728.24,27174.48,-377.38,-291.3,-1631.94
2107,0.008,0.773,0.335,0.441,0.712,0.85,4.1,-18057.2,4816.24,26674.48,-536.38,20.7,-1232.94
2127,0.006,0.773,0.365,0.438,0.566,1.45,3.73,-18153.2,4772.24,26406.48,-1257.38,152.7,-1316.94
2147,0.011,0.766,0.365,0.427,0.859,1.97,3.23,-18117.2,3996.24,26530.48,-1299.38,-252.3,-1185.94
2167,0.008,0.787,0.365,0.438,0.761,2.38,2.87,-18061.2,4460.24,26914.48,-974.38,-678.3,-777.94
2187,0.01,0.773,0.335,0.445,0.907,2.83,2.64,-17913.2,4920.24,26826.48,-868.38,-181.3,-574.94
2207,0.008,0.773,0.365,0.431,0.761,3.28,2.46,-17845.2,4764.24,26898.48,-349.38,56.7,-368.94
2227,0.01,0.773,0.335,0.438,0.81,3.75,2.47,-17665.2,5888.24,26746.48,-542.38,456.7,-171.94
2247,0.008,0.808,0.304,0.431,0.663,4.21,2.22,-18105.2,5524.24,26726.48,-1915.38,73.7,-481.94
2267,0.011,0.773,0.365,0.427,0.712,4.5,1.92,-18281.2,4088.24,27198.48,-598.38,-1188.3,-356.94
2287,0.008,0.78,0.365,0.441,0.712,4.69,2.04,-17841.2,4536.24,26886.48,1659.62,-1277.3,306.06
2307,0.008,0.773,0.365,0.424,0.712,4.96,2.5,-17521.2,6328.24,26966.48,1872.62,-335.3,741.06
2327,0.01,0.766,0.335,0.431,0.615,5.25,2.73,-17553.2,6220.24,27202.48,618.62,-75.3,249.06
2347,0.011,0.773,0.365,0.438,0.712,5.5,2.85,-17561.2,6232.24,27226.48,-180.38,-314.3,44.06
2367,0.011,0.78,0.335,0.431,0.859,5.76,2.93,-17369.2,6576.24,26818.48,-893.38,77.7,-83.94
2387,0.013,0.78,0.274,0.438,0.663,6.07,2.83,-17685.2,5928.24,26926.48,-1399.38,70.7,-344.94
2407,0.013,0.759,0.304,0.445,0.566,6.31,2.78,-17745.2,5320.24,26974.48,-402.38,-409.3,-183.94
2427,0.013,0.759,0.304,0.431,0.566,6.52,2.94,-17589.2,6008.24,27118.48,239.62,-286.3,-11.94
2447,0.013,0.759,0.274,0.427,0.712,6.75,3.09,-17545.2,6364.24,27250.48,-166.38,-86.3,-199.94
2467,0.013,0.773,0.335,0.441,0.712,6.93,3.21,-17405.2,6228.24,27058.48,-283.38,-145.3,-354.94
2487,0.011,0.752,0.335,0.438,0.761,7.17,3.32,-17241.2,6416.24,26878.48,-639.38,486.7,-641.94
2507,0.015,0.759,0.304,0.427,0.663,7.46,3.19,-17893.2,5460.24,27198.48,-1106.38,164.7,-628.94
2526,0.011,0.71,0.304,0.438,0.663,7.63,3.16,-17877.2,5040.24,27414.48,111.62,-506.3,-155.94
2547,0.013,0.759,0.335,0.438,0.663,7.77,3.44,-17165.2,5984.24,26650.48,941.62,60.7,-73.94
2567,0.01,0.759,0.365,0.431,0.712,8.07,3.68,-17317.2,6764.24,26362.48,-316.38,988.7,-406.94
2587,0.013,0.717,0.335,0.438,0.615,8.4,3.39,-18037.2,5104.24,26514.48,-1796.38,463.7,-728.94
2607,0.013,0.773,0.365,0.438,0.712,8.55,3.16,-17933.2,4148.24,26930.48,-398.38,-506.3,-427.94
2627,0.011,0.752,0.365,0.441,0.663,8.62,3.36,-17733.2,5276.24,27114.48,1249.62,-723.3,206.06
2647,0.011,0.773,0.365,0.431,0.81,8.72,3.75,-17289.2,6304.24,26670.48,1257.62,-51.3,299.06
2667,0.011,0.801,0.335,0.438,0.663,8.95,3.88,-17469.2,6380.24,26386.48,-540.38,634.7,-212.94
2687,0.013,0.815,0.365,0.431,0.663,9.15,3.59,-17813.2,5148.24,26978.48,-1864.38,215.7,-570.94
2707,0.008,0.752,0.304,0.438,0.615,9.26,3.41,-17937.2,4956.24,26990.48,-1005.38,-531.3,-101.94
2727,0.01,0.759,0.304,0.438,0.663,9.31,3.49,-17677.2,5752.24,27034.48,-231.38,-522.3,238.06
2747,0.008,0.773,0.304,0.445,0.615,9.37,3.52,-17573.2,5684.24,26938.48,-474.38,-310.3,142.06
2767,0.008,0.759,0.335,0.431,0.615,9.51,3.55,-17569.2,5404.24,26910.48,-216.38,168.7,-107.94
2787,0.008,0.787,0.304,0.427,0.663,9.67,3.67,-17721.2,5788.24,27286.48,52.62,356.7,-271.94
2807,0.008,0.773,0.304,0.431,0.712,9.79,3.76,-17749.2,5780.24,27006.48,-211.38,-34.3,-76.94
2827,0.004,0.759,0.274,0.438,0.81,9.82,3.86,-17501.2,5988.24,26870.48,-405.38,-273.3,132.06
2847,0.011,0.766,0.365,0.431,0.712,9.87,3.81,-17545.2,5692.24,27142.48,-1028.38,-113.3,-99.94
2867,0.008,0.759,0.365,0.431,0.663,9.95,3.73,-17609.2,5064.24,27230.48,-525.38,0.7,-212.94
2887,0.013,0.759,0.457,0.431,0.712,10.04,3.81,-17625.2,5244.24,26954.48,302.62,79.7,-21.94
2906,0.011,0.787,0.335,0.438,0.712,10.1,3.89,-17681.2,5040.24,26718.48,545.62,-172.3,-19.94
2926,0.013,0.773,0.365,0.438,0.761,10.06,4.05,-17449.2,5100.24,26542.48,990.62,-617.3,263.06
2946,0.011,0.822,0.335,0.438,1.0,10.05,4.26,-17245.2,5812.24,26410.48,491.62,-192.3,532.06
2966,0.013,0.815,0.304,0.438,0.566,10.13,4.28,-17541.2,5872.24,26478.48,-830.38,175.7,328.06
2987,0.013,0.759,0.304,0.427,0.81,10.19,4.14,-18001.2,5024.24,27102.48,-880.38,-437.3,326.06
