timestamp,flex_1,flex_2,flex_3,flex_4,flex_5,kalman_pitch,kalman_roll,acc_x,acc_y,acc_z,gyro_x,gyro_y,gyro_z
0,0.886,0.673,0.206,0.812,0.301,-41.66,-27.4,-3359.12,-1152.56,19357.44,-531.34,-1282.34,-277.04
19,0.815,0.68,0.306,0.83,0.301,-43.03,-31.67,-2999.12,-1396.56,19445.44,-1116.34,-2195.34,-819.04
38,0.886,0.66,0.14,0.849,0.512,-45.48,-34.0,-1503.12,-1020.56,18381.44,-1603.34,-1009.34,-957.04
57,0.886,0.673,0.106,0.785,0.723,-45.4,-34.86,-1991.12,-1436.56,19669.44,-2648.34,2452.66,-678.04
76,1.0,0.693,0.14,0.83,0.406,-43.54,-35.3,-3523.12,-2352.56,21437.44,-3178.34,3793.66,-815.04
95,1.0,0.673,0.173,0.712,0.459,-41.87,-35.47,-3639.12,-2796.56,22341.44,-2350.34,3393.66,-317.04
114,1.0,0.68,0.206,0.821,0.459,-40.31,-35.7,-3735.12,-3452.56,22681.44,-1240.34,3975.66,999.96
133,1.0,0.68,0.04,0.858,0.406,-38.19,-35.72,-4535.12,-5696.56,24581.44,2499.66,4375.66,1948.96
152,1.0,0.68,0.206,0.858,0.459,-36.14,-35.27,-4231.12,-7272.56,25205.44,8102.66,5753.66,3014.96
171,1.0,0.693,0.106,0.839,0.459,-34.0,-33.54,-4415.12,-6108.56,27277.44,12909.66,7652.66,3426.96
190,0.886,0.693,1.0,0.794,0.459,-31.89,-31.6,-5475.12,-5944.56,28553.44,14174.66,6920.66,3750.96
209,0.886,0.693,0.206,0.821,0.354,-29.58,-29.62,-7199.12,-3952.56,29653.44,11544.66,7466.66,4758.96
228,0.744,0.686,0.173,0.839,0.459,-27.9,-28.09,-6491.12,-5500.56,29373.44,12158.66,5505.66,7213.96
247,0.673,0.693,0.206,0.903,0.406,-26.15,-26.48,-6351.12,-3988.56,30789.44,10485.66,7121.66,8140.96
266,0.388,0.693,0.073,0.821,0.301,-24.55,-25.43,-5791.12,-5076.56,30373.44,9094.66,7895.66,8978.96
285,0.246,0.693,0.14,0.912,0.512,-22.91,-24.2,-6339.12,-4584.56,30625.44,10111.66,8442.66,10331.96
304,0.53,0.693,0.106,0.83,0.512,-21.3,-22.67,-6639.12,-3528.56,30941.44,11555.66,8877.66,11011.96
323,0.388,0.693,0.007,0.849,0.459,-19.69,-20.9,-7039.12,-2148.56,31601.44,12063.66,9241.66,10956.96
343,0.246,0.693,1.0,0.849,0.142,-18.01,-19.11,-7407.12,-1600.56,31589.44,11875.66,9626.66,10652.96
362,0.459,0.693,0.106,0.93,0.354,-16.4,-17.38,-7315.12,-1240.56,31585.44,12536.66,10760.66,10750.96
382,0.459,0.706,0.206,0.849,0.459,-14.78,-15.41,-7307.12,-920.56,32013.44,13894.66,10919.66,10592.96
402,0.388,0.726,0.206,0.876,0.459,-13.21,-13.26,-7231.12,-608.56,32597.44,15635.66,11290.66,9033.96
422,0.174,0.62,0.073,0.885,0.406,-11.71,-11.04,-6515.12,-232.56,32309.44,16843.66,12577.66,6720.96
442,0.388,0.693,0.007,0.839,0.0,-10.22,-8.91,-6167.12,143.44,31761.44,17031.66,13987.66,5340.96
462,0.246,0.839,0.173,0.821,0.459,-8.77,-7.22,-5363.12,495.44,30497.44,14988.66,15954.66,3781.96
482,0.53,0.693,0.206,0.812,0.301,-7.21,-6.11,-6459.12,-12.56,30097.44,12636.66,16543.66,3547.96
502,0.174,0.693,0.04,0.839,0.406,-5.77,-5.31,-7087.12,-1080.56,30393.44,12380.66,15692.66,3893.96
522,0.246,0.693,0.106,0.839,0.406,-4.57,-4.01,-7515.12,143.44,31037.44,14682.66,14232.66,5263.96
542,0.103,0.706,0.173,0.83,0.248,-3.7,-2.33,-6659.12,1667.44,30513.44,16356.66,14067.66,5527.96
562,0.246,0.693,0.206,0.849,0.459,-2.71,-0.94,-6439.12,2627.44,28757.44,14368.66,16828.66,3465.96
582,0.174,0.693,0.206,0.867,0.459,-1.44,-0.17,-8227.12,3611.44,27565.44,9568.66,17807.66,2521.96
602,0.388,0.693,0.206,0.876,0.195,-0.12,0.37,-9539.12,4351.44,26897.44,7280.66,17508.66,1788.96
622,0.246,0.68,0.14,0.849,0.406,1.01,0.97,-10399.12,4955.44,25705.44,7116.66,16148.66,1417.96
641,0.174,0.693,0.14,0.83,0.459,1.58,1.78,-10235.12,5583.44,23861.44,7869.66,14237.66,354.96
662,0.174,0.693,0.206,0.849,0.406,1.54,3.16,-9663.12,7119.44,20797.44,8190.66,13829.66,-2307.04
682,0.032,0.693,0.173,0.858,0.142,0.88,4.57,-9647.12,7307.44,17229.44,6384.66,14258.66,-4776.04
702,0.174,0.686,0.206,0.785,0.406,0.09,5.79,-10731.12,7171.44,14853.44,3137.66,15041.66,-6555.04
722,0.032,0.686,0.173,0.94,0.617,-0.77,6.74,-12343.12,6771.44,12929.44,-552.34,13432.66,-7006.04
741,0.388,0.706,0.173,0.803,0.459,-1.33,6.95,-13631.12,6091.44,11841.44,-2825.34,10350.66,-6592.04
761,0.174,0.693,0.206,0.903,0.248,1.16,8.34,-14907.12,6127.44,10917.44,-3232.34,6762.66,-5706.04
781,0.246,0.693,0.206,0.858,0.617,4.89,8.78,-16239.12,5971.44,11245.44,-2183.34,2811.66,-5296.04
801,0.174,0.686,0.173,0.858,0.301,7.02,7.71,-16711.12,5191.44,12569.44,1039.66,-622.34,-4264.04
821,0.174,0.68,0.206,0.749,0.406,8.37,7.46,-17055.12,5111.44,13925.44,5635.66,-1540.34,-2204.04
841,0.388,0.686,0.14,0.83,0.406,9.38,8.64,-18107.12,6419.44,16237.44,8802.66,-1802.34,-1087.04
861,0.174,0.68,0.106,0.776,0.301,9.94,10.09,-17775.12,7295.44,17225.44,8537.66,-1749.34,-161.04
880,0.174,0.7,0.173,0.858,0.301,10.63,11.01,-17899.12,7287.44,18125.44,6170.66,43.66,89.96
900,0.032,0.693,0.106,0.876,0.301,11.36,11.24,-18883.12,7463.44,20169.44,2502.66,246.66,237.96
920,0.032,0.693,0.206,0.885,0.459,12.07,10.55,-19011.12,6291.44,20309.44,-818.34,37.66,13.96
941,0.103,0.686,0.173,0.876,0.406,12.82,9.28,-21359.12,5287.44,22557.44,-2618.34,-1736.34,141.96
961,0.103,0.686,0.206,0.876,0.301,12.97,7.89,-21519.12,3963.44,24397.44,-1566.34,-4447.34,1732.96
981,0.103,0.713,0.0,0.94,0.354,13.06,6.94,-21055.12,3847.44,24765.44,1148.66,-3952.34,3138.96
1001,0.246,0.68,0.173,0.867,0.248,13.21,6.12,-20991.12,3415.44,25753.44,2264.66,-2873.34,4277.96
1021,0.246,0.68,0.571,0.849,0.142,13.55,5.36,-20935.12,3639.44,25945.44,2024.66,-1363.34,5165.96
1040,0.103,0.686,0.173,0.83,0.617,14.1,4.44,-21235.12,3799.44,26105.44,342.66,-176.34,5995.96
1061,0.032,0.693,1.0,0.839,0.406,14.69,3.23,-21639.12,3739.44,26037.44,-1828.34,-302.34,6663.96
1080,0.174,0.686,0.14,0.876,0.459,15.25,2.0,-21087.12,4255.44,25845.44,-3209.34,266.66,7265.96
1101,0.174,0.686,0.173,0.849,0.459,15.95,0.58,-21227.12,3875.44,25885.44,-4503.34,1309.66,7079.96
1121,0.0,0.68,0.14,0.83,0.406,16.56,-1.06,-21599.12,2887.44,26357.44,-5135.34,757.66,7415.96
1141,0.0,0.68,0.173,0.867,0.406,16.95,-2.51,-20847.12,2423.44,26249.44,-3720.34,392.66,8918.96
1161,0.0,0.72,0.206,0.83,0.301,17.3,-3.48,-20407.12,3051.44,26693.44,-1962.34,962.66,10129.96
1181,0.103,0.693,0.571,0.849,0.301,17.59,-4.06,-19715.12,4755.44,26949.44,-2218.34,1655.66,10845.96
1201,0.032,0.686,0.206,0.858,0.459,17.93,-4.8,-19251.12,5823.44,26697.44,-5098.34,2672.66,10365.96
1221,0.0,0.686,0.073,0.794,0.248,18.25,-6.0,-19079.12,5343.44,26897.44,-8032.34,2996.66,10671.96
1241,0.0,0.68,0.14,0.739,0.512,18.34,-7.23,-17975.12,5107.44,26893.44,-8403.34,3029.66,11148.96
1261,0.0,0.686,0.173,0.858,0.301,18.4,-8.17,-17603.12,5359.44,26817.44,-7282.34,3342.66,11431.96
1281,0.032,0.68,0.173,0.821,0.406,18.41,-8.6,-18411.12,6411.44,28105.44,-5585.34,2398.66,12410.96
1301,0.174,0.7,0.206,0.867,0.406,18.18,-8.58,-17215.12,7419.44,28037.44,-4072.34,2310.66,13107.96
1321,0.103,0.673,0.14,0.794,0.406,17.96,-8.28,-16439.12,8375.44,27341.44,-3628.34,3285.66,13005.96
1341,0.032,0.686,0.206,0.812,0.406,17.83,-7.87,-16299.12,8787.44,27417.44,-3346.34,4077.66,12411.96
1361,0.0,0.68,0.073,0.821,0.459,17.72,-7.23,-16251.12,9491.44,26737.44,-2786.34,4190.66,12384.96
1381,0.103,0.673,0.173,0.83,0.301,17.53,-6.39,-16095.12,10059.44,26465.44,-2175.34,3900.66,12601.96
1401,0.103,0.786,0.173,0.812,0.617,17.24,-5.23,-15711.12,11175.44,25853.44,-1380.34,3698.66,12633.96
1421,0.103,0.673,0.206,0.839,0.617,16.78,-3.73,-14775.12,11747.44,24537.44,-260.34,3664.66,12224.96
1441,0.103,0.686,0.173,0.83,0.354,16.49,-2.23,-15483.12,11423.44,23489.44,82.66,3669.66,10881.96
1461,0.0,0.693,0.04,0.849,0.248,16.04,-0.59,-16387.12,12287.44,25177.44,1317.66,1449.66,12180.96
1481,0.0,0.68,0.173,0.812,0.248,15.24,1.36,-15395.12,12863.44,24269.44,2646.66,257.66,12299.96
1501,0.0,0.673,0.106,0.849,0.67,14.61,3.53,-15871.12,14539.44,24173.44,2787.66,536.66,11575.96
1521,0.032,0.653,0.14,0.83,0.459,14.04,5.47,-15931.12,14747.44,24085.44,1510.66,752.66,10112.96
1540,0.0,0.673,0.106,0.876,0.248,13.58,7.08,-16435.12,14155.44,24369.44,717.66,669.66,8606.96
1560,0.103,0.68,0.106,0.821,0.828,13.14,8.53,-16863.12,14167.44,25457.44,723.66,226.66,8234.96
1581,0.0,0.68,0.206,0.849,0.301,12.65,9.92,-16283.12,14955.44,24737.44,-526.34,443.66,7206.96
1601,0.0,0.673,0.14,0.821,0.195,12.39,10.94,-16635.12,14207.44,24601.44,-2042.34,1405.66,5306.96
1621,0.0,0.673,0.173,0.812,0.406,12.24,11.78,-17283.12,12147.44,25241.44,-198.34,1168.66,4856.96
1641,0.246,0.646,0.239,0.812,0.195,12.05,13.13,-17535.12,11683.44,25801.44,4460.66,604.66,5659.96
1661,0.103,0.673,0.073,0.876,0.406,11.73,15.4,-17555.12,13007.44,25641.44,9627.66,-246.34,7143.96
1681,0.0,0.686,0.206,0.876,0.142,11.37,18.04,-17267.12,14707.44,24501.44,10449.66,-350.34,6901.96
1701,0.459,0.686,0.173,0.821,0.354,10.99,20.44,-17099.12,15303.44,23137.44,8062.66,-608.34,5541.96
1721,0.174,0.693,0.173,0.83,0.406,11.33,21.73,-32655.12,16371.44,36165.44,6439.66,-4441.34,4703.96
1741,0.174,0.693,0.206,0.849,0.617,10.98,23.02,-17091.12,14895.44,22417.44,1517.66,-687.34,866.96
1761,0.388,0.693,0.206,0.812,0.037,10.71,23.61,-18047.12,14319.44,22797.44,-1982.34,-1549.34,-982.04
1781,0.246,0.666,0.073,0.812,0.354,10.33,23.74,-18247.12,13343.44,23989.44,-3070.34,-2529.34,-1157.04
1800,0.174,0.68,0.206,0.821,0.354,9.92,23.76,-17955.12,12887.44,24229.44,-3150.34,-2702.34,-1258.04
1820,0.103,0.626,0.007,0.83,0.406,9.59,23.73,-17583.12,12375.44,24273.44,-2898.34,-1756.34,-1631.04
1839,0.174,0.693,0.14,0.821,0.301,9.5,23.72,-17995.12,11891.44,24789.44,-1825.34,-745.34,-2265.04
1859,0.246,0.66,0.206,0.758,0.354,9.43,23.74,-18211.12,11379.44,24889.44,-1008.34,-821.34,-2070.04
1879,0.174,0.68,0.14,0.858,0.512,9.33,23.77,-18107.12,11283.44,24729.44,-908.34,-998.34,-1540.04
1899,0.032,0.673,0.173,0.839,0.459,9.23,23.69,-18335.12,11055.44,24881.44,-1272.34,-1326.34,-1229.04
1919,0.174,0.66,0.14,0.812,0.248,9.09,23.58,-18063.12,10735.44,25261.44,-936.34,-1310.34,-720.04
1938,0.174,0.66,0.106,0.83,0.301,9.08,23.66,-17979.12,10815.44,25361.44,297.66,-336.34,-422.04
1959,0.246,0.693,0.04,0.758,0.142,9.23,23.87,-18307.12,11023.44,25485.44,1131.66,440.66,-223.04
1978,0.246,0.673,0.106,0.821,0.406,9.42,24.17,-18307.12,10971.44,25037.44,1633.66,580.66,50.96
1998,0.174,0.607,0.206,0.83,0.09,9.56,24.57,-18295.12,11371.44,24781.44,1871.66,281.66,399.96
2018,0.103,0.666,0.106,0.83,0.354,9.69,24.91,-18391.12,11287.44,24437.44,1618.66,-1.34,680.96
2039,0.174,0.68,0.14,0.803,0.723,9.72,25.29,-18275.12,11471.44,24601.44,1774.66,-472.34,859.96
2058,0.388,0.68,0.173,0.849,0.406,9.69,25.76,-17771.12,12415.44,24497.44,1512.66,-192.34,591.96
2078,0.103,0.66,0.14,0.867,0.67,9.71,25.98,-17863.12,12611.44,24509.44,-367.34,60.66,-66.04
2099,0.246,0.673,0.106,0.83,0.406,9.73,25.87,-18015.12,12023.44,24781.44,-1685.34,-153.34,-255.04
2118,0.388,0.68,0.206,0.821,0.0,9.74,25.72,-17811.12,11587.44,24641.44,-1559.34,-77.34,-143.04
2138,0.388,0.673,0.106,0.83,0.354,9.82,25.61,-17891.12,11339.44,24481.44,-1110.34,204.66,-209.04
2157,0.459,0.686,0.007,0.812,0.406,9.96,25.66,-18315.12,11495.44,24513.44,-219.34,216.66,362.96
2177,0.459,0.666,0.04,0.812,0.301,10.06,25.83,-18219.12,11867.44,24501.44,243.66,65.66,690.96
2197,0.459,0.686,0.04,0.858,0.037,10.1,26.06,-17951.12,12003.44,24341.44,418.66,19.66,840.96
2217,0.388,0.693,0.14,0.83,0.354,10.11,26.32,-17755.12,12107.44,24437.44,700.66,-2.34,663.96
2237,0.53,0.633,0.14,0.83,0.354,10.15,26.63,-17819.12,12243.44,24161.44,872.66,136.66,661.96
2257,0.317,0.653,0.14,0.794,0.459,10.22,26.9,-17839.12,12227.44,24021.44,617.66,261.66,304.96
2277,0.459,0.653,0.007,0.83,0.459,10.31,27.09,-18067.12,12175.44,24073.44,251.66,93.66,218.96
2298,0.459,0.553,0.14,0.812,0.301,10.34,27.25,-18011.12,12379.44,24021.44,-168.34,-190.34,118.96
2318,0.459,0.626,0.206,0.849,0.354,10.35,27.29,-18027.12,12207.44,23965.44,-744.34,-330.34,-110.04
2337,0.459,0.673,0.173,0.839,0.459,10.34,27.28,-18027.12,12123.44,24225.44,-798.34,-563.34,-145.04
2356,0.744,0.673,0.173,0.849,0.459,10.3,27.25,-17951.12,11767.44,24513.44,-319.34,-633.34,-24.04
2375,0.673,0.68,0.073,0.867,0.828,10.26,27.37,-17827.12,11731.44,24557.44,645.66,-432.34,-49.04
2395,0.673,0.666,0.206,0.794,0.67,10.27,27.57,-17947.12,12291.44,24609.44,735.66,-253.34,7.96
2416,0.673,0.673,0.173,0.821,0.037,10.28,27.68,-17967.12,12311.44,24633.44,192.66,-216.34,-177.04
2436,0.673,0.693,0.206,0.849,0.406,10.31,27.7,-18055.12,12311.44,24813.44,-359.34,-185.34,-399.04
2456,0.815,0.673,0.14,0.876,0.354,10.3,27.6,-17927.12,11811.44,24369.44,-756.34,-414.34,-493.04
2475,0.886,0.68,0.14,0.767,0.142,10.35,27.45,-18087.12,11387.44,24481.44,-549.34,-358.34,-534.04
2495,0.744,0.673,0.206,0.849,0.617,10.42,27.44,-18315.12,11795.44,24697.44,14.66,-257.34,-442.04
2515,0.815,0.673,0.14,0.812,0.354,10.46,27.43,-18155.12,12151.44,24589.44,-437.34,-330.34,-547.04
2535,0.886,0.706,0.239,0.821,0.406,10.51,27.25,-18291.12,11683.44,24669.44,-1074.34,-438.34,-684.04
2555,0.815,0.66,0.272,0.858,0.459,10.53,27.06,-18191.12,11431.44,24833.44,-781.34,-467.34,-556.04
2575,0.744,0.666,0.173,0.858,0.459,10.62,26.95,-18159.12,11567.44,24861.44,-377.34,-34.34,-585.04
2594,0.815,0.68,0.206,0.83,0.406,10.71,26.8,-18079.12,11459.44,24777.44,-597.34,97.66,-494.04
2615,0.815,0.686,0.173,0.858,0.406,10.82,26.62,-18095.12,11443.44,24533.44,-953.34,205.66,-387.04
2635,0.815,0.706,0.073,0.858,0.512,10.99,26.45,-18203.12,11543.44,24317.44,-1092.34,385.66,-495.04
2655,0.815,0.653,0.073,0.867,0.512,11.14,26.24,-18415.12,11351.44,24389.44,-1153.34,74.66,-546.04
2675,0.815,0.66,0.106,0.83,0.67,11.19,26.02,-18367.12,11159.44,24513.44,-982.34,-490.34,-318.04
2694,0.744,0.68,0.173,0.83,0.459,11.2,25.87,-18311.12,10959.44,24729.44,-247.34,-687.34,-3.04
2715,0.744,0.673,0.106,0.83,0.195,11.2,25.81,-18167.12,10983.44,24877.44,395.66,-544.34,244.96
2734,0.744,0.693,0.14,0.812,0.459,11.25,25.82,-18099.12,11291.44,24957.44,557.66,-151.34,240.96
2754,0.886,0.673,0.106,0.849,0.459,11.33,25.83,-17895.12,11667.44,24973.44,251.66,386.66,214.96
2775,0.744,0.733,0.206,0.83,0.406,11.47,25.73,-18027.12,11543.44,24557.44,-591.34,550.66,-157.04
2795,0.744,0.693,0.04,0.821,0.881,11.59,25.55,-18219.12,11051.44,24405.44,-684.34,165.66,-128.04
2815,0.886,0.693,0.239,0.83,0.406,11.64,25.44,-18135.12,10999.44,24521.44,-108.34,-256.34,181.96
2834,0.744,0.693,0.505,0.821,0.406,11.63,25.42,-17919.12,11395.44,24481.44,76.66,-305.34,198.96
2854,0.601,0.693,0.173,0.83,0.459,11.67,25.41,-18035.12,11763.44,24513.44,-311.34,-93.34,73.96
2875,0.53,0.673,0.106,0.83,0.354,11.73,25.23,-18247.12,11359.44,24641.44,-916.34,-172.34,67.96
2895,0.53,0.68,0.106,0.858,0.301,11.74,25.08,-18031.12,11275.44,24701.44,-609.34,-283.34,236.96
2915,0.744,0.68,0.04,0.849,0.406,11.75,25.04,-17919.12,11451.44,24617.44,-121.34,-141.34,148.96
2934,0.53,0.693,0.14,0.812,0.301,11.75,24.98,-17947.12,11307.44,24677.44,-130.34,-308.34,61.96
2955,0.53,0.673,0.173,0.821,0.354,11.73,24.93,-17947.12,11479.44,24961.44,-96.34,-279.34,146.96
2975,0.601,0.66,0.173,0.821,0.617,11.75,24.87,-17967.12,11591.44,24877.44,-251.34,-95.34,170.96
2994,0.673,0.673,0.206,0.821,0.617,11.81,24.75,-18047.12,11199.44,24789.44,-351.34,25.66,-33.04
