timestamp,flex_1,flex_2,flex_3,flex_4,flex_5,kalman_pitch,kalman_roll,acc_x,acc_y,acc_z,gyro_x,gyro_y,gyro_z
0,1.0,0.524,1.0,0.142,1.0,146.17,237.96,2505.36,4170.72,16056.0,2975.46,11727.2,2856.36
19,1.0,0.273,0.157,0.119,0.457,93.79,169.18,3013.36,2674.72,17736.0,4705.46,18008.2,2424.36
39,1.0,0.489,0.605,0.0,1.0,66.29,129.83,-626.64,2582.72,21112.0,5404.46,22322.2,766.36
59,1.0,0.412,0.997,0.014,0.017,47.51,104.72,-1518.64,4110.72,20272.0,6167.46,18416.2,488.36
79,1.0,0.405,1.0,0.33,0.0,33.25,88.17,-2446.64,6142.72,19552.0,4921.46,12194.2,721.36
99,1.0,0.182,0.0,0.368,0.757,21.33,74.81,-898.64,5726.72,19408.0,778.46,7285.2,328.36
120,1.0,0.335,0.829,0.089,0.337,12.43,63.92,-2622.64,5546.72,20660.0,-2047.54,4153.2,-1160.64
139,1.0,0.056,0.549,0.285,0.777,4.42,53.42,-1530.64,3218.72,20180.0,-3865.54,618.2,-2610.64
160,1.0,0.224,0.0,0.089,0.577,-2.52,44.88,-1798.64,3530.72,20460.0,-3653.54,-1513.8,-3965.64
180,1.0,0.384,0.0,0.346,0.257,-8.64,38.06,-2506.64,4482.72,21188.0,-4140.54,-4434.8,-4619.64
200,0.923,0.328,0.857,0.263,0.577,-14.61,31.6,-2546.64,4194.72,20448.0,-6453.54,-7714.8,-5713.64
220,0.66,0.349,0.073,0.127,0.017,-20.26,25.23,-2350.64,2726.72,20044.0,-6434.54,-9909.8,-6434.64
240,0.47,0.573,0.465,0.21,0.237,-25.93,19.13,-1082.64,1126.72,20008.0,-5378.54,-13088.8,-4787.64
260,0.491,0.147,0.829,0.466,0.437,-30.98,13.58,-1314.64,278.72,19588.0,-3359.54,-12704.8,-3762.64
280,0.509,0.259,0.689,0.142,0.0,-35.31,8.33,-1578.64,-509.28,19544.0,-3330.54,-11268.8,-2670.64
300,0.485,0.224,1.0,0.368,0.0,-39.11,3.2,-978.64,-969.28,19624.0,-5037.54,-9589.8,-1114.64
320,0.373,0.196,0.0,0.0,0.0,-42.5,-1.9,-238.64,-1293.28,19528.0,-7076.54,-7942.8,1355.36
340,0.757,0.154,0.913,0.421,0.137,-45.43,-7.23,-486.64,-1337.28,19036.0,-10662.54,-6201.8,4951.36
360,0.988,0.098,0.045,0.413,0.417,-47.8,-13.28,-66.64,-3145.28,19072.0,-15912.54,-4449.8,7922.36
380,0.236,0.294,1.0,0.127,0.977,-49.55,-19.65,-150.64,-5169.28,19820.0,-19717.54,-3046.8,9837.36
400,0.331,0.161,0.717,0.323,0.237,-50.97,-25.8,-254.64,-6129.28,19776.0,-20155.54,-2079.8,12050.36
420,0.559,0.335,0.605,0.24,0.0,-52.18,-31.85,601.36,-6089.28,18148.0,-20038.54,244.2,14759.36
440,0.225,0.056,0.0,0.368,0.757,-52.75,-38.05,1009.36,-8133.28,17060.0,-20797.54,3637.2,16386.36
460,0.281,0.308,0.941,0.436,0.0,-52.32,-43.81,585.36,-9793.28,17428.0,-19854.54,8884.2,17438.36
480,0.251,0.133,1.0,0.187,0.277,-51.58,-49.15,1313.36,-10585.28,17100.0,-18413.54,11432.2,18506.36
500,0.358,0.489,0.745,0.293,0.357,-50.61,-54.16,1605.36,-10345.28,16208.0,-17406.54,13842.2,20136.36
520,0.281,0.328,0.0,0.142,0.157,-49.34,-58.89,-634.64,-11433.28,17852.0,-18614.54,13628.2,21240.36
540,0.207,0.831,1.0,0.368,0.0,-48.26,-63.15,-490.64,-11565.28,17668.0,-17023.54,12854.2,23728.36
560,0.408,0.405,0.0,0.504,0.0,-47.28,-67.1,-1066.64,-11917.28,16992.0,-15635.54,11973.2,25225.36
580,0.242,0.468,1.0,0.285,0.717,-46.41,-71.02,-1554.64,-12789.28,16356.0,-16005.54,10912.2,25059.36
600,0.263,0.0,0.0,0.0,0.277,-45.67,-74.42,-2374.64,-12581.28,16592.0,-14187.54,9599.2,25189.36
620,0.343,0.287,0.521,0.368,0.437,-44.8,-77.27,-4438.64,-13189.28,16848.0,-11721.54,8627.2,27140.36
640,0.0,0.405,0.241,0.0,0.717,-44.15,-80.1,-5318.64,-13029.28,15868.0,-11862.54,6722.2,27267.36
660,0.287,0.287,1.0,0.127,0.117,-43.71,-82.95,-6022.64,-13689.28,15348.0,-12427.54,4648.2,27381.36
680,0.21,0.273,0.073,0.323,0.297,-43.34,-85.71,-7290.64,-14721.28,15124.0,-12415.54,2676.2,28650.36
700,0.236,0.252,0.269,0.0,0.037,-42.78,-88.5,-8702.64,-15497.28,14936.0,-13436.54,2575.2,30604.36
720,0.234,0.154,0.0,0.225,0.0,-42.1,-91.43,-10626.64,-16957.28,15764.0,-15999.54,1454.2,31575.36
740,0.384,0.656,0.493,0.119,0.0,-41.58,-94.34,-11274.64,-18153.28,15528.0,-16584.54,-218.8,32806.36
760,0.355,0.147,0.381,0.172,0.577,-40.71,-96.82,-12254.64,-16753.28,13596.0,-13406.54,1363.2,32806.36
780,0.26,0.308,0.0,0.27,0.757,-38.92,-98.91,-12758.64,-14437.28,14712.0,-13242.54,7403.2,32806.36
800,0.376,0.0,0.325,0.225,0.977,-36.42,-100.54,-15962.64,-13449.28,14944.0,-11323.54,9475.2,32806.36
820,0.189,0.328,0.0,0.0,0.837,-34.57,-102.6,-15706.64,-12613.28,14512.0,-14962.54,5819.2,32806.36
840,0.296,0.0,0.0,0.27,0.0,-32.89,-103.82,-14150.64,-9613.28,13012.0,-9083.54,6472.2,32806.36
860,0.308,0.28,1.0,0.0,0.557,-30.91,-104.72,-14862.64,-8029.28,11376.0,-5687.54,7828.2,32806.36
880,0.328,0.0,1.0,0.383,0.117,-28.56,-104.76,-15518.64,-5545.28,11844.0,-1316.54,9446.2,32806.36
900,0.091,0.245,0.0,0.225,0.0,-26.25,-104.37,-14142.64,-2313.28,10948.0,2342.46,11546.2,32806.36
920,0.254,0.217,0.0,0.164,0.0,-23.14,-104.31,-14990.64,2378.72,9796.0,2787.46,12796.2,32806.36
940,0.242,0.238,0.0,0.127,0.037,-19.66,-104.61,-15326.64,2866.72,9196.0,3159.46,14229.2,32806.36
960,0.346,0.224,1.0,0.0,0.017,-15.52,-107.43,-15162.64,6134.72,7944.0,4123.46,14485.2,32806.36
980,0.695,0.363,0.325,0.542,0.977,-12.12,-111.14,-15070.64,7210.72,7060.0,7963.46,13186.2,32806.36
1000,0.275,0.182,1.0,0.451,0.977,-10.71,-97.87,-12246.64,10922.72,6708.0,9682.46,16531.2,32806.36
1020,0.346,0.935,1.0,1.0,0.0,-8.77,-83.98,-15270.64,8434.72,6472.0,6001.46,5682.2,32254.36
1040,0.376,0.663,0.045,1.0,1.0,-6.82,-71.47,-17234.64,11482.72,3552.0,5355.46,6310.2,28548.36
1060,0.476,0.126,1.0,0.979,0.297,-6.01,-59.8,-16698.64,13050.72,3044.0,5023.46,1288.2,23610.36
1079,0.225,0.0,0.409,1.0,1.0,-5.26,-49.02,-17562.64,14814.72,1852.0,2837.46,801.2,17624.36
1100,0.242,0.607,1.0,0.813,0.197,-4.41,-39.4,-19870.64,15254.72,2024.0,-1697.54,-1898.8,11796.36
1120,0.376,0.684,0.0,0.655,0.037,-3.58,-30.55,-20934.64,15578.72,3032.0,-2912.54,-3780.8,8551.36
1140,0.376,0.0,1.0,1.0,1.0,-2.82,-21.76,-22366.64,15174.72,3304.0,-1303.54,-6472.8,5655.36
1160,0.373,0.356,0.0,0.368,0.0,-1.81,-12.61,-22878.64,14546.72,2572.0,1298.46,-5364.8,3553.36
1180,0.225,0.0,0.0,1.0,0.857,-0.65,-5.04,-24706.64,17090.72,4240.0,-1645.54,-5112.8,3720.36
1199,0.355,0.161,0.381,1.0,0.237,1.18,2.36,-26294.64,16486.72,4328.0,-1367.54,-2284.8,-530.64
1219,0.47,0.335,0.801,1.0,0.0,3.4,9.88,-27462.64,15158.72,4108.0,-530.54,-1109.8,-4140.64
1239,0.432,0.238,0.353,0.874,0.657,5.67,17.49,-28162.64,13986.72,3376.0,-839.54,-1232.8,-5861.64
1259,0.405,0.189,0.0,0.61,0.677,7.96,25.01,-28238.64,13774.72,3396.0,146.46,-846.8,-5194.64
1280,0.467,0.468,0.297,0.21,0.617,10.43,32.6,-28806.64,13510.72,3660.0,2631.46,182.2,-3474.64
1299,0.281,0.0,1.0,0.512,0.0,12.85,40.34,-28714.64,12698.72,2996.0,3261.46,427.2,-2550.64
1319,0.346,0.245,0.801,0.127,0.337,15.05,47.51,-28498.64,12266.72,3276.0,1059.46,-924.8,-2080.64
1340,0.186,0.0,1.0,0.278,0.717,17.03,54.4,-27874.64,11842.72,3008.0,-253.54,-1587.8,-1921.64
1360,0.384,0.224,1.0,0.051,0.0,19.02,60.76,-27486.64,11842.72,3504.0,-1273.54,-1313.8,-2170.64
1380,0.364,0.05,1.0,0.391,0.957,21.13,66.91,-27598.64,11686.72,3828.0,-783.54,-444.8,-2329.64
1400,0.408,0.433,1.0,0.851,1.0,23.14,72.87,-27622.64,11314.72,4272.0,-510.54,-1424.8,-1948.64
1420,0.245,0.0,0.549,0.512,0.977,24.93,78.72,-27382.64,11330.72,4684.0,1175.46,-2699.8,-1176.64
1439,0.429,0.0,0.269,0.632,0.797,26.4,84.37,-26718.64,11890.72,4280.0,1989.46,-3251.8,-882.64
1460,0.097,0.461,1.0,0.255,0.0,27.96,89.55,-26886.64,12038.72,4416.0,1055.46,-2510.8,-1391.64
1480,0.34,0.294,0.241,0.677,0.817,29.7,94.16,-27238.64,12122.72,5144.0,258.46,-1729.8,-1821.64
1500,0.355,0.0,0.493,0.0,0.157,31.47,98.53,-27674.64,11774.72,5612.0,314.46,-2021.8,-1859.64
1520,0.313,0.036,0.521,0.587,0.0,33.16,102.82,-27722.64,11462.72,5900.0,1042.46,-2659.8,-2002.64
1540,0.225,0.07,0.017,1.0,0.0,34.69,106.92,-27414.64,11722.72,5928.0,1709.46,-3089.8,-2339.64
1560,0.402,0.545,0.0,0.783,0.0,36.32,110.61,-27398.64,11742.72,6620.0,2197.46,-2527.8,-2417.64
1580,0.408,0.245,0.605,0.587,0.117,38.14,113.68,-27914.64,11626.72,7752.0,2604.46,-1978.8,-2462.64
1600,0.639,0.196,1.0,0.979,0.117,39.96,116.0,-27986.64,11198.72,9020.0,3415.46,-2660.8,-2485.64
1620,0.355,0.133,0.0,0.881,0.517,41.62,118.11,-27102.64,10866.72,9548.0,5326.46,-3536.8,-2341.64
1640,0.423,0.147,1.0,0.376,1.0,43.28,120.49,-26542.64,11098.72,9472.0,7776.46,-2591.8,-2330.64
1660,0.456,0.51,0.0,0.738,0.197,45.06,122.56,-26366.64,11390.72,10008.0,9519.46,-978.8,-2770.64
1680,0.42,0.879,0.409,1.0,0.0,47.05,124.69,-26530.64,10750.72,10004.0,10854.46,-14.8,-3444.64
1700,0.411,0.266,0.0,1.0,0.0,48.98,126.69,-26798.64,11182.72,10312.0,12498.46,642.2,-4038.64
1720,0.325,0.6,0.0,0.527,0.0,50.96,129.39,-27110.64,11402.72,9504.0,14188.46,1714.2,-5072.64
1740,0.562,0.036,1.0,0.285,0.337,53.22,133.56,-28450.64,10050.72,7936.0,14957.46,2763.2,-6107.64
1760,0.645,0.098,1.0,0.76,0.0,55.5,137.99,-31342.64,10658.72,7136.0,16932.46,3876.2,-5758.64
1780,0.47,1.0,0.941,1.0,0.0,57.8,143.21,-30350.64,10062.72,6508.0,19919.46,4961.2,-4893.64
1800,0.722,0.168,1.0,1.0,0.337,60.2,149.8,-33010.64,8510.72,1416.0,20521.46,9568.2,-4893.64
1820,0.473,0.482,1.0,1.0,0.117,62.47,138.21,-36382.64,6302.72,-1572.0,17955.46,10543.2,-4861.64
1840,0.734,0.259,0.0,0.24,1.0,64.26,127.18,-36334.64,4566.72,-3968.0,17561.46,9738.2,-2596.64
1860,0.66,0.0,0.521,0.61,0.0,65.59,116.53,-35130.64,3186.72,-8420.0,17627.46,10395.2,-144.64
1880,0.305,0.0,0.0,0.625,0.557,66.93,106.07,-33874.64,-373.28,-11268.0,14337.46,13450.2,-99.64
1900,0.37,0.0,0.0,0.512,0.0,68.22,95.13,-33150.64,-2653.28,-14028.0,8132.46,15405.2,-639.64
1920,0.467,0.0,0.0,0.119,0.717,69.47,83.47,-30526.64,-3377.28,-16672.0,1147.46,17960.2,-412.64
1940,0.379,0.384,0.0,0.361,0.0,70.34,71.2,-28350.64,-5089.28,-17668.0,-6485.54,17621.2,-408.64
1960,0.225,0.468,1.0,0.0,0.817,69.8,58.34,-23926.64,-7037.28,-19104.0,-14190.54,11333.2,1384.36
1980,0.515,0.07,0.577,0.097,0.0,67.89,45.47,-21018.64,-5161.28,-17876.0,-16670.54,3323.2,5909.36
2000,0.45,0.147,0.717,0.112,0.737,64.28,33.25,-20386.64,-4485.28,-15712.0,-15534.54,-8649.8,10232.36
2020,0.701,0.0,0.0,0.444,0.557,59.18,21.56,-16818.64,-2133.28,-11220.0,-14851.54,-18002.8,11830.36
2040,0.743,0.063,0.045,0.376,0.537,52.8,9.66,-13310.64,-689.28,-10116.0,-18376.54,-25279.8,8652.36
2060,0.769,0.0,0.353,1.0,0.477,44.97,-2.24,-9758.64,-1521.28,-3284.0,-25677.54,-32858.8,5425.36
2080,0.55,0.043,0.0,0.444,0.0,36.55,-11.0,-9378.64,-249.28,9180.0,-24513.54,-34043.8,5799.36
2100,0.754,0.21,0.0,1.0,0.0,28.08,-16.08,-7818.64,2218.72,15512.0,-19809.54,-34043.8,8516.36
2120,0.145,0.224,0.549,0.361,0.117,19.1,-20.33,-1710.64,3318.72,17440.0,-20585.54,-34043.8,8497.36
2140,0.358,0.266,1.0,0.0,0.897,11.43,-23.9,-3038.64,3982.72,24180.0,-22350.54,-34043.8,9595.36
2160,0.376,0.0,0.0,0.0,0.0,5.21,-25.72,2733.36,7558.72,25400.0,-16363.54,-22717.8,10829.36
2179,0.553,0.0,0.0,0.602,1.0,4.11,-26.99,-7714.64,6722.72,36292.0,-12621.54,-779.8,8146.36
2200,0.722,0.0,0.0,1.0,1.0,5.72,-26.14,-22566.64,16186.72,42528.0,-4228.54,8330.2,9719.36
2219,0.467,0.803,1.0,1.0,0.817,7.48,-23.81,-25174.64,22854.72,39888.0,1932.46,8437.2,8181.36
2240,0.609,0.872,1.0,0.527,0.0,8.38,-21.98,-24546.64,28170.72,33152.0,-5928.54,2947.2,-1329.64
2261,0.769,0.949,0.353,1.0,1.0,11.2,-20.4,-31390.64,25958.72,33068.0,-6426.54,12521.2,-7571.64
2280,0.897,1.0,1.0,0.874,1.0,15.02,-18.27,-36238.64,26790.72,29788.0,-4357.54,17393.2,-14535.64
2300,1.0,1.0,0.0,0.662,1.0,18.84,-16.04,-38106.64,21518.72,24976.0,-2880.54,14969.2,-19921.64
2320,1.0,0.935,0.0,0.368,1.0,23.09,-13.31,-39346.64,15250.72,18880.0,1573.46,13915.2,-20253.64
2340,1.0,1.0,0.689,1.0,0.297,28.2,-11.12,-39554.64,9482.72,13820.0,2656.46,15924.2,-17113.64
2360,1.0,0.754,0.465,0.489,0.0,33.47,-16.88,-39582.64,6590.72,8848.0,7451.46,16112.2,-9834.64
2380,1.0,0.614,0.353,1.0,0.757,37.62,-22.42,-36218.64,5326.72,3600.0,13420.46,14335.2,-6515.64
2400,1.0,0.928,1.0,0.61,0.0,41.09,-27.35,-33050.64,3962.72,264.0,15998.46,14698.2,-5139.64
2420,1.0,1.0,0.381,1.0,1.0,43.88,-32.34,-31334.64,3302.72,-2036.0,14870.46,13624.2,-1872.64
2440,1.0,0.942,0.913,1.0,0.0,45.79,-37.19,-30162.64,3354.72,-3268.0,15586.46,9906.2,2978.36
2460,1.0,1.0,0.381,0.353,0.157,47.01,-42.13,-29014.64,4938.72,-3460.0,16337.46,6281.2,6297.36
2480,1.0,0.705,0.157,1.0,0.457,47.47,-47.92,-26374.64,6318.72,-4236.0,11574.46,3637.2,5481.36
2499,1.0,0.37,0.0,0.625,1.0,47.78,-54.68,-25610.64,7026.72,-2980.0,4617.46,2520.2,3058.36
2520,1.0,1.0,0.0,1.0,1.0,47.74,-61.63,-24198.64,6630.72,-2168.0,1193.46,762.2,2824.36
2539,1.0,1.0,0.157,0.625,0.0,48.11,-50.89,-25438.64,7610.72,-68.0,2025.46,725.2,4077.36
2559,1.0,1.0,0.0,0.632,1.0,48.33,-40.79,-25974.64,8858.72,444.0,2387.46,-964.8,4700.36
2579,1.0,0.294,0.0,0.859,0.0,48.46,-31.5,-25686.64,9742.72,1500.0,1270.46,-2162.8,3933.36
2599,1.0,1.0,0.0,0.61,0.497,48.82,-22.58,-24822.64,9230.72,2600.0,189.46,-1228.8,2871.36
2619,0.577,0.635,0.0,0.625,0.897,49.91,-15.05,-27790.64,11418.72,4584.0,219.46,1003.2,1201.36
2639,1.0,0.14,0.0,1.0,0.917,50.81,-7.52,-27662.64,10142.72,4528.0,-1545.54,-626.8,-266.64
2660,1.0,1.0,0.325,0.293,0.0,51.71,-0.31,-28190.64,10110.72,5196.0,-1179.54,-1430.8,-496.64
2679,1.0,0.663,1.0,0.587,1.0,52.57,6.9,-27458.64,9786.72,5112.0,-782.54,-1243.8,-886.64
2700,1.0,0.642,1.0,0.594,0.977,53.68,13.5,-28958.64,10018.72,5804.0,-1418.54,-448.8,-1125.64
2719,1.0,0.098,0.941,0.602,0.457,54.73,20.23,-28922.64,9210.72,5784.0,-1967.54,-1036.8,-1075.64
2739,1.0,1.0,0.409,0.602,1.0,55.83,26.82,-28914.64,9114.72,6244.0,-990.54,-1019.8,-472.64
2759,1.0,0.754,0.0,0.315,0.057,56.98,33.05,-29550.64,9590.72,6236.0,-200.54,-285.8,-475.64
2779,1.0,0.593,1.0,0.127,0.097,58.03,39.21,-29078.64,9478.72,5756.0,-637.54,-225.8,-895.64
2799,1.0,1.0,0.745,0.557,0.677,59.16,45.09,-29578.64,9574.72,5984.0,-415.54,310.2,-1167.64
2819,1.0,1.0,0.801,0.738,0.0,60.11,50.82,-29422.64,9490.72,5820.0,-750.54,-441.8,-1095.64
2840,1.0,0.81,0.0,0.836,0.997,60.99,56.5,-28890.64,9134.72,5836.0,-1082.54,-793.8,-618.64
2859,1.0,0.914,1.0,1.0,1.0,61.96,61.95,-28866.64,9162.72,6192.0,-597.54,-257.8,-238.64
2879,1.0,0.642,0.0,0.602,1.0,62.98,67.04,-29318.64,9522.72,6280.0,-133.54,297.2,-40.64
2899,1.0,1.0,1.0,0.602,0.0,63.89,71.89,-29086.64,9758.72,6088.0,-147.54,232.2,-276.64
2919,1.0,0.461,1.0,0.0,1.0,64.74,76.49,-29734.64,9922.72,6124.0,-78.54,-75.8,-230.64
2940,1.0,1.0,1.0,0.994,0.357,65.29,81.01,-29150.64,10038.72,5656.0,-153.54,-1297.8,-76.64
2959,0.891,1.0,0.325,0.617,0.0,65.75,85.63,-28190.64,9626.72,5356.0,-203.54,-1246.8,30.36
2979,1.0,1.0,0.0,0.579,0.0,66.43,89.73,-28902.64,10190.72,5848.0,96.46,-89.8,-37.64
