timestamp,flex_1,flex_2,flex_3,flex_4,flex_5,kalman_pitch,kalman_roll,acc_x,acc_y,acc_z,gyro_x,gyro_y,gyro_z
0,0.403,0.507,1.0,0.383,1.0,66.01,-8.22,5806.72,-2594.32,19702.88,259.72,1305.72,-397.12
20,0.449,0.476,1.0,0.228,0.391,47.1,-4.22,5754.72,-2854.32,19542.88,347.72,1334.72,-493.12
40,0.533,0.619,1.0,0.356,1.0,37.95,-2.35,5794.72,-2886.32,19510.88,543.72,962.72,-708.12
60,0.437,0.476,1.0,0.589,0.987,32.69,-1.02,5522.72,-2578.32,19694.88,645.72,726.72,-733.12
79,0.551,0.491,1.0,0.306,0.854,29.15,0.15,5706.72,-2118.32,19630.88,784.72,1112.72,-587.12
99,0.688,0.452,1.0,0.395,0.258,26.47,0.81,6190.72,-2346.32,19478.88,404.72,1725.72,-754.12
119,0.583,0.309,1.0,0.411,0.589,24.56,1.32,6022.72,-2090.32,19638.88,-297.28,1897.72,-997.12
140,0.624,0.452,1.0,0.439,0.325,23.27,1.31,5558.72,-2894.32,19498.88,-588.28,1717.72,-1829.12
159,0.608,0.38,0.064,0.406,0.391,21.98,1.72,6226.72,-2050.32,19118.88,27.72,1563.72,-1668.12
180,0.533,0.468,1.0,0.389,0.258,21.24,1.58,5370.72,-3150.32,19594.88,-257.28,1920.72,-958.12
200,0.603,0.491,1.0,0.594,0.258,20.74,1.47,4762.72,-3082.32,20150.88,-273.28,1624.72,-1594.12
219,0.661,0.436,1.0,0.356,0.589,20.23,1.44,5062.72,-2778.32,20246.88,-380.28,1766.72,-1638.12
239,0.654,0.491,1.0,0.372,0.325,19.99,1.1,4722.72,-3714.32,20794.88,-566.28,2755.72,-1807.12
260,0.89,0.571,1.0,0.567,0.391,20.1,0.94,4542.72,-4026.32,22126.88,1057.72,5303.72,-1972.12
280,0.881,0.563,1.0,0.406,0.325,20.71,0.81,3506.72,-4794.32,23122.88,2414.72,7620.72,-841.12
299,0.872,0.531,1.0,0.406,0.325,21.86,0.74,1734.72,-5654.32,23878.88,3900.72,9644.72,1792.88
319,0.873,0.579,1.0,0.705,0.391,23.43,1.05,210.72,-5426.32,24042.88,6128.72,11342.72,3676.88
340,0.874,0.619,1.0,0.478,0.0,25.16,2.0,-637.28,-3798.32,23506.88,8474.72,11957.72,5350.88
361,0.877,0.722,1.0,0.544,1.0,27.06,3.71,-1413.28,-1418.32,22014.88,10753.72,12319.72,6708.88
379,0.884,0.77,1.0,0.694,1.0,29.27,6.1,-4225.28,1949.68,21494.88,11426.72,12707.72,6798.88
399,0.886,0.603,1.0,0.683,0.457,31.2,8.47,-2873.28,1821.68,20398.88,12135.72,12281.72,8235.88
420,0.88,0.635,1.0,0.7,0.722,32.78,10.3,-2957.28,1409.68,19786.88,9589.72,10163.72,7991.88
440,0.874,0.977,1.0,0.894,0.987,34.09,12.24,-1225.28,2045.68,18490.88,9649.72,10040.72,7032.88
459,0.877,0.746,1.0,0.9,1.0,35.9,14.35,-3921.28,3657.68,17070.88,8242.72,10917.72,6344.88
479,0.877,1.0,1.0,0.9,0.258,37.43,16.52,-2029.28,4305.68,17362.88,8923.72,11961.72,6446.88
501,0.88,0.889,1.0,1.0,1.0,39.41,18.86,-2009.28,3165.68,14862.88,10327.72,13595.72,6982.88
521,0.874,1.0,1.0,1.0,0.0,41.36,21.68,-1905.28,4877.68,13510.88,10580.72,14319.72,7476.88
539,0.886,1.0,1.0,1.0,1.0,43.29,24.62,-553.28,4553.68,12286.88,11305.72,15438.72,8037.88
561,0.308,1.0,1.0,1.0,0.854,45.34,28.02,-1401.28,4837.68,10898.88,13064.72,15396.72,8607.88
580,0.316,1.0,1.0,1.0,0.987,47.14,31.77,-1501.28,6249.68,9774.88,13103.72,14920.72,8362.88
600,0.277,1.0,1.0,1.0,1.0,48.73,35.64,-921.28,6469.68,8350.88,12506.72,14442.72,8717.88
620,0.248,1.0,1.0,1.0,0.589,49.99,39.23,-1909.28,7021.68,8318.88,11275.72,12275.72,7607.88
640,0.43,1.0,1.0,1.0,1.0,50.65,42.39,-2693.28,7361.68,8182.88,9109.72,8127.72,6397.88
660,0.515,1.0,1.0,1.0,1.0,50.51,45.09,-3553.28,8209.68,8266.88,6501.72,2819.72,4810.88
680,0.608,1.0,1.0,1.0,1.0,49.61,47.11,-2577.28,8697.68,8522.88,2733.72,-1033.28,3539.88
700,0.589,1.0,1.0,1.0,1.0,48.05,48.44,-1781.28,7469.68,8266.88,-1026.28,-6234.28,2547.88
720,0.689,1.0,1.0,1.0,1.0,45.97,49.74,450.72,7129.68,7670.88,-1753.28,-8375.28,1465.88
739,0.907,1.0,1.0,1.0,1.0,44.14,51.12,3730.72,6189.68,7558.88,-406.28,-3238.28,690.88
760,0.877,1.0,1.0,1.0,1.0,43.48,51.98,578.72,5013.68,9434.88,1280.72,-769.28,-762.12
779,0.884,1.0,1.0,1.0,1.0,42.53,53.03,-1017.28,5425.68,10046.88,3516.72,-4298.28,-734.12
800,0.881,1.0,1.0,1.0,0.0,41.06,53.92,394.72,5845.68,10030.88,2295.72,-6207.28,303.88
820,0.879,1.0,1.0,1.0,1.0,39.38,54.32,1002.72,5105.68,10302.88,540.72,-7825.28,520.88
840,0.873,1.0,1.0,0.711,0.854,37.75,54.41,1430.72,3757.68,10350.88,591.72,-8722.28,2163.88
860,0.871,1.0,1.0,1.0,0.523,36.15,54.51,1834.72,2177.68,10622.88,3898.72,-9608.28,788.88
880,0.874,1.0,0.0,1.0,1.0,34.05,55.2,2158.72,5121.68,11242.88,4473.72,-10600.28,-40.12
900,0.874,1.0,0.0,1.0,1.0,31.75,55.39,3538.72,4989.68,11510.88,2003.72,-10589.28,287.88
920,0.881,1.0,1.0,1.0,1.0,29.46,55.12,4154.72,4805.68,12078.88,-44.28,-10267.28,-190.12
939,0.875,1.0,1.0,1.0,1.0,27.34,54.47,3586.72,4253.68,12310.88,-1674.28,-11001.28,93.88
961,0.879,1.0,1.0,1.0,1.0,25.11,53.79,4174.72,3845.68,12366.88,-1289.28,-11837.28,-219.12
980,0.873,1.0,1.0,1.0,1.0,22.72,53.21,5026.72,4193.68,12818.88,-761.28,-11932.28,-1143.12
1001,0.873,1.0,1.0,1.0,0.0,20.3,52.76,5642.72,5205.68,12378.88,-1881.28,-11859.28,-1532.12
1021,0.88,1.0,1.0,1.0,0.0,17.86,51.9,6710.72,3573.68,12822.88,-1969.28,-11393.28,-3101.12
1040,0.63,1.0,1.0,1.0,1.0,15.52,51.09,6754.72,4005.68,13434.88,-1858.28,-11250.28,-4684.12
1061,0.732,1.0,1.0,1.0,0.0,12.88,49.94,8042.72,3449.68,14886.88,-2063.28,-11741.28,-5466.12
1081,0.67,1.0,1.0,1.0,0.788,10.21,48.91,8566.72,3353.68,15354.88,-990.28,-11992.28,-5797.12
1100,0.686,1.0,1.0,1.0,0.0,7.62,48.03,9166.72,4093.68,15938.88,-741.28,-11469.28,-5478.12
1121,0.686,1.0,1.0,1.0,1.0,5.31,46.94,8594.72,4241.68,17074.88,-1701.28,-11358.28,-4863.12
1140,0.743,1.0,1.0,1.0,0.0,3.18,45.86,8510.72,4649.68,16982.88,-2487.28,-11065.28,-4569.12
1160,0.644,1.0,1.0,1.0,0.987,1.3,44.88,9238.72,5733.68,16050.88,-4179.28,-9143.28,-4040.12
1180,0.689,0.977,1.0,1.0,1.0,0.13,43.36,8230.72,3625.68,17110.88,-4862.28,-6405.28,-4118.12
1201,0.672,1.0,1.0,1.0,1.0,-0.47,41.78,6478.72,3481.68,17882.88,-5090.28,-5402.28,-3884.12
1221,0.612,0.913,1.0,1.0,0.987,-0.86,40.42,5354.72,3569.68,19246.88,-3301.28,-5271.28,-1621.12
1240,0.591,1.0,1.0,1.0,0.0,-1.26,39.5,5402.72,3317.68,20102.88,36.72,-5439.28,180.88
1259,0.563,0.865,1.0,1.0,1.0,-1.5,39.18,6766.72,4957.68,18950.88,1471.72,-2985.28,730.88
1280,0.557,1.0,1.0,1.0,1.0,-1.28,38.55,6726.72,5005.68,18594.88,-1008.28,35.72,667.88
1299,0.604,1.0,1.0,1.0,1.0,-0.85,37.96,6198.72,5541.68,18702.88,-1416.28,849.72,917.88
1320,0.61,1.0,1.0,1.0,0.589,-0.52,37.74,6398.72,5809.68,18514.88,509.72,519.72,1853.88
1339,0.611,1.0,1.0,1.0,0.589,-0.35,37.94,7274.72,7661.68,18154.88,1324.72,634.72,2527.88
1360,0.613,1.0,1.0,1.0,0.788,-0.26,38.34,7530.72,8333.68,17786.88,1869.72,478.72,2035.88
1380,0.603,1.0,1.0,1.0,0.921,-0.36,39.18,8006.72,11541.68,17814.88,2511.72,-204.28,1920.88
1399,0.563,0.992,1.0,0.672,0.523,-0.57,39.87,7826.72,10765.68,18438.88,2770.72,-1235.28,488.88
1420,0.567,1.0,1.0,1.0,1.0,-0.94,40.67,8790.72,11957.68,18038.88,2643.72,-1389.28,-608.12
1439,0.596,1.0,1.0,1.0,0.457,-1.17,41.38,8710.72,11625.68,17278.88,1894.72,-632.28,-2611.12
1461,0.54,1.0,1.0,1.0,0.391,-1.36,42.0,8226.72,11017.68,18030.88,2503.72,-1007.28,-3527.12
1481,0.551,1.0,1.0,1.0,1.0,-1.71,42.82,8570.72,11317.68,18198.88,4036.72,-1899.28,-4352.12
1501,0.568,1.0,1.0,1.0,0.921,-2.18,43.7,9262.72,11345.68,17158.88,3906.72,-2074.28,-5583.12
1521,0.551,1.0,1.0,1.0,0.921,-2.53,44.47,9118.72,10597.68,16546.88,3441.72,-1599.28,-6822.12
1540,0.581,1.0,1.0,1.0,0.921,-2.79,45.2,9158.72,9593.68,15862.88,3670.72,-1104.28,-7582.12
1559,0.576,1.0,1.0,1.0,0.391,-2.95,45.92,8354.72,9049.68,15430.88,3862.72,-1551.28,-8004.12
1579,0.554,1.0,1.0,1.0,1.0,-3.21,46.67,8326.72,8089.68,15150.88,4889.72,-2377.28,-8460.12
1599,0.533,1.0,1.0,1.0,1.0,-3.6,47.49,8542.72,7881.68,14942.88,5692.72,-3120.28,-8892.12
1620,0.544,1.0,1.0,1.0,0.854,-3.84,48.28,7758.72,7437.68,14718.88,5901.72,-3349.28,-9264.12
1640,0.581,0.746,1.0,1.0,0.0,-4.14,48.98,7758.72,7145.68,14510.88,5734.72,-3927.28,-9442.12
1660,0.551,1.0,1.0,1.0,1.0,-4.44,49.63,7738.72,7549.68,14354.88,5074.72,-4114.28,-10178.12
1681,0.586,0.984,1.0,1.0,0.722,-4.69,50.11,7542.72,6621.68,13830.88,4590.72,-4368.28,-11052.12
1700,0.545,1.0,1.0,1.0,1.0,-4.81,50.57,6762.72,5893.68,13758.88,5253.72,-4883.28,-11632.12
1721,0.497,1.0,1.0,0.972,0.854,-4.99,51.02,6030.72,5225.68,13822.88,6258.72,-6537.28,-11498.12
1741,0.534,0.992,1.0,0.661,1.0,-5.29,51.62,5518.72,4909.68,13918.88,7923.72,-8363.28,-10999.12
1760,0.533,0.945,1.0,1.0,0.0,-5.9,52.44,5734.72,5213.68,14642.88,10090.72,-10163.28,-10460.12
1781,0.589,1.0,1.0,1.0,1.0,-6.55,53.55,6422.72,6845.68,14710.88,10810.72,-9465.28,-11163.12
1801,0.875,1.0,0.0,1.0,0.854,-6.83,54.27,6170.72,7905.68,14514.88,7452.72,-7500.28,-13921.12
1821,0.872,1.0,1.0,1.0,0.589,-6.76,54.17,5294.72,6373.68,14686.88,3594.72,-6607.28,-16160.12
1841,0.874,1.0,1.0,1.0,1.0,-6.52,53.47,5110.72,3953.68,14278.88,1923.72,-6541.28,-16430.12
1860,0.879,1.0,1.0,1.0,1.0,-6.06,52.48,4270.72,2289.68,14234.88,1887.72,-6745.28,-16143.12
1880,0.873,1.0,1.0,1.0,0.258,-5.72,51.49,4094.72,1073.68,14658.88,3879.72,-7876.28,-15151.12
1901,0.875,1.0,1.0,0.938,1.0,-5.53,50.94,3882.72,1933.68,15070.88,5705.72,-8862.28,-13633.12
1921,0.872,1.0,1.0,1.0,1.0,-5.37,50.34,3998.72,2849.68,15418.88,4361.72,-8617.28,-12735.12
1941,0.877,1.0,1.0,1.0,1.0,-4.76,48.97,2530.72,1053.68,15726.88,1577.72,-7778.28,-14152.12
1961,0.872,1.0,1.0,0.983,1.0,-4.25,47.34,2382.72,-742.32,17174.88,2729.72,-8075.28,-12840.12
1980,0.871,1.0,1.0,1.0,0.656,-3.91,46.23,2662.72,865.68,17734.88,3925.72,-8467.28,-10384.12
2000,0.871,0.889,1.0,1.0,0.0,-3.26,44.92,1778.72,2061.68,16594.88,261.72,-7609.28,-11397.12
2020,0.878,1.0,1.0,1.0,1.0,-2.6,42.83,2550.72,-1238.32,17130.88,-724.28,-6951.28,-11418.12
2040,0.879,1.0,1.0,1.0,1.0,-1.92,41.21,2770.72,-1094.32,17846.88,2029.72,-6051.28,-9162.12
2060,0.874,1.0,1.0,1.0,0.523,-0.83,39.8,1410.72,241.68,17314.88,1043.72,-4845.28,-9310.12
2079,0.884,1.0,1.0,1.0,0.391,0.22,37.94,358.72,-2118.32,18382.88,1054.72,-5603.28,-8477.12
2100,0.879,1.0,1.0,1.0,0.987,0.99,36.69,1734.72,-1322.32,17798.88,3667.72,-6173.28,-6278.12
2120,0.877,0.722,1.0,0.983,1.0,2.06,35.51,1098.72,685.68,17298.88,992.72,-4720.28,-6199.12
2139,0.878,0.881,1.0,1.0,0.523,3.18,33.61,650.72,-2630.32,18034.88,387.72,-4544.28,-5992.12
2160,0.875,1.0,1.0,1.0,1.0,4.24,32.25,986.72,-1694.32,18090.88,2337.72,-4361.28,-3958.12
2180,0.879,1.0,1.0,0.994,1.0,5.36,31.3,1010.72,1473.68,17286.88,463.72,-3600.28,-3284.12
2199,0.88,1.0,1.0,1.0,1.0,6.6,29.93,222.72,-218.32,17582.88,-421.28,-3560.28,-4380.12
2220,0.871,1.0,1.0,0.827,1.0,7.64,28.86,674.72,-786.32,18214.88,2184.72,-3817.28,-3286.12
2240,0.875,1.0,1.0,1.0,0.523,8.67,28.21,1118.72,1269.68,17850.88,2161.72,-3193.28,-2604.12
2260,0.875,1.0,1.0,0.955,0.987,9.99,27.15,-101.28,-182.32,17690.88,865.72,-2424.28,-3491.12
2280,0.877,1.0,1.0,1.0,0.987,11.1,26.15,178.72,-1358.32,18270.88,2698.72,-3132.28,-1373.12
2300,0.877,1.0,1.0,1.0,0.391,11.95,25.61,1798.72,1133.68,18006.88,2452.72,-2812.28,-565.12
2320,0.877,1.0,1.0,1.0,0.921,13.13,24.9,1118.72,2437.68,17038.88,-985.28,-1244.28,-1631.12
2340,0.877,1.0,1.0,1.0,1.0,14.36,23.51,586.72,1.68,17794.88,-2564.28,-1233.28,-1670.12
2359,0.886,0.889,1.0,1.0,0.987,15.36,22.37,1386.72,-330.32,17898.88,-709.28,-1666.28,-428.12
2380,0.873,1.0,1.0,0.938,0.325,16.39,21.64,1198.72,1937.68,17282.88,-1362.28,-1269.28,362.88
2400,0.887,1.0,1.0,1.0,0.589,17.41,20.77,1174.72,521.68,18122.88,-482.28,-950.28,176.88
2419,0.875,1.0,1.0,0.994,1.0,18.3,20.36,2314.72,1501.68,18034.88,1186.72,-273.28,262.88
2439,0.878,1.0,1.0,1.0,0.589,19.29,19.95,2494.72,3425.68,17782.88,-1302.28,1164.72,161.88
2460,0.871,1.0,1.0,1.0,0.258,20.55,19.18,1002.72,2281.68,17450.88,-2839.28,1341.72,-525.12
2480,0.88,1.0,1.0,1.0,0.854,21.43,18.73,1234.72,1425.68,17882.88,361.72,-536.28,613.88
2500,0.877,1.0,1.0,1.0,1.0,21.97,18.85,3086.72,3105.68,17474.88,1920.72,-544.28,998.88
2519,0.874,1.0,1.0,0.999,1.0,22.67,18.92,2694.72,4521.68,17254.88,-126.28,493.72,439.88
2540,0.88,1.0,1.0,0.977,0.921,23.53,18.67,2030.72,3697.68,16994.88,-1626.28,856.72,-172.12
2560,0.88,0.929,1.0,0.999,0.656,24.28,18.43,2622.72,2701.68,16230.88,-1038.28,461.72,20.88
2579,0.884,1.0,1.0,1.0,0.0,24.97,18.23,2442.72,2461.68,16658.88,-359.28,261.72,584.88
2600,0.879,1.0,1.0,1.0,0.921,25.53,18.32,1702.72,2373.68,17330.88,2028.72,-947.28,1465.88
2620,0.874,1.0,1.0,1.0,0.0,25.82,18.91,2666.72,4445.68,17270.88,3157.72,-1140.28,1513.88
2640,0.874,1.0,1.0,0.961,0.656,26.24,19.24,3462.72,5113.68,16898.88,522.72,686.72,354.88
2659,0.875,1.0,1.0,0.999,1.0,27.0,19.07,2318.72,3753.68,16782.88,-1554.28,1606.72,-401.12
2680,0.884,1.0,1.0,0.988,0.656,27.71,18.91,2306.72,3069.68,16546.88,-893.28,1314.72,-142.12
2699,0.879,1.0,1.0,1.0,0.325,28.24,18.99,2674.72,3521.68,15958.88,-348.28,599.72,101.88
2719,0.875,0.921,1.0,0.883,0.0,28.66,18.93,2390.72,2649.68,16502.88,78.72,-325.28,306.88
2740,0.877,1.0,1.0,1.0,1.0,28.95,19.19,2638.72,3105.68,16510.88,1644.72,-608.28,877.88
2759,0.881,1.0,1.0,1.0,0.656,29.27,19.5,3238.72,4801.68,16450.88,129.72,748.72,378.88
2780,0.879,1.0,1.0,0.983,0.854,29.85,19.42,2282.72,3365.68,16262.88,-1068.28,1241.72,-424.12
2800,0.875,1.0,1.0,0.994,0.788,30.25,19.42,2106.72,2617.68,16506.88,360.72,-114.28,99.88
2819,0.886,1.0,1.0,0.95,0.258,30.5,19.67,2618.72,3745.68,15870.88,357.72,-373.28,407.88
2840,0.885,1.0,1.0,1.0,1.0,30.79,19.78,2710.72,3705.68,15970.88,-470.28,150.72,54.88
2860,0.873,1.0,1.0,0.977,1.0,31.17,19.84,2230.72,2817.68,16266.88,331.72,278.72,-49.12
2880,0.877,1.0,1.0,0.983,0.0,31.49,20.02,2214.72,3433.68,16086.88,294.72,105.72,96.88
2899,0.875,1.0,1.0,1.0,0.987,31.75,20.06,2566.72,3369.68,15950.88,-628.28,93.72,-118.12
2919,0.877,1.0,1.0,1.0,0.788,31.98,20.1,2538.72,3237.68,15826.88,-668.28,-88.28,-170.12
2939,0.879,1.0,1.0,1.0,0.722,32.27,20.14,2130.72,3057.68,16026.88,-352.28,54.72,-313.12
2960,0.88,1.0,1.0,1.0,1.0,32.45,20.15,2314.72,2785.68,16318.88,-29.28,-307.28,56.88
2979,0.875,1.0,1.0,0.983,0.0,32.54,20.28,2562.72,3465.68,16158.88,-216.28,-453.28,86.88
