timestamp,flex_1,flex_2,flex_3,flex_4,flex_5,kalman_pitch,kalman_roll,acc_x,acc_y,acc_z,gyro_x,gyro_y,gyro_z
0,0.51,0.273,0.0,0.516,1.0,63.99,107.8,-790.32,-1617.12,17447.28,5727.78,7135.88,2594.44
19,0.1,0.619,0.0,0.525,0.0,21.51,55.33,469.68,110.88,17163.28,8768.78,7838.88,1911.44
39,0.276,0.128,0.0,0.559,0.0,1.7,33.03,1605.68,1042.88,18107.28,9312.78,9206.88,2527.44
59,0.452,0.211,0.0,0.545,0.0,-7.56,20.95,-526.32,958.88,21095.28,6436.78,7688.88,2032.44
80,0.276,0.239,0.0,0.448,0.0,-12.12,12.49,-2278.32,-793.12,23423.28,6137.78,6595.88,1682.44
100,0.334,0.294,0.147,0.407,0.0,-14.64,6.98,-3498.32,-1617.12,25763.28,9513.78,4912.88,1528.44
119,0.0,0.246,0.0,0.43,0.0,-16.84,3.34,-3226.32,18.88,25571.28,8534.78,4608.88,143.44
139,0.393,0.204,0.147,0.375,0.0,-18.69,0.09,-2674.32,414.88,27019.28,3320.78,3918.88,50.44
159,0.276,0.343,0.0,0.412,0.0,-20.5,-3.71,-706.32,-341.12,25303.28,-1797.22,7090.88,842.44
180,0.393,0.197,0.829,0.411,0.0,-20.88,-7.74,-250.32,-3793.12,26739.28,-1857.22,13432.88,4457.44
200,0.276,0.273,0.388,0.394,0.0,-20.14,-9.4,-1250.32,-1069.12,30879.28,4234.78,17419.88,7404.44
220,0.158,0.377,0.0,0.282,0.0,-18.79,-11.3,-1990.32,-2149.12,30947.28,2747.78,20908.88,7344.44
240,0.51,0.0,0.0,0.304,0.0,-17.47,-14.15,-946.32,-3633.12,29451.28,-2747.22,23121.88,9295.44
260,0.334,0.419,1.0,0.393,0.6,-15.18,-15.63,-4074.32,-10117.12,30267.28,11777.78,25354.88,9703.44
280,0.0,0.343,0.789,0.332,0.43,-13.35,-15.96,-1278.32,-6189.12,28027.28,16316.78,27942.88,12986.44
300,0.158,0.0,0.147,0.548,0.0,-11.17,-16.35,-3322.32,-97.12,31683.28,6705.78,28623.88,11860.44
320,0.276,0.101,0.0,0.474,0.685,-8.79,-15.56,-2454.32,-3369.12,31499.28,18525.78,31547.88,9772.44
340,0.158,0.149,0.0,0.412,0.0,-6.72,-15.69,-4306.32,1818.88,26247.28,8079.78,31547.88,12344.44
360,0.393,0.128,0.0,0.43,0.0,-4.22,-17.72,-6250.32,1858.88,30191.28,-6405.22,31547.88,9353.44
380,0.276,0.0,0.548,0.156,0.0,-1.57,-19.49,-8162.32,-945.12,30015.28,-2345.22,31547.88,15438.44
400,0.569,0.0,0.0,0.298,0.0,1.14,-21.48,-9682.32,-3737.12,28115.28,-956.22,31547.88,19653.44
420,0.51,0.0,1.0,0.652,1.0,4.09,-23.09,-12318.32,-5901.12,27387.28,3467.78,31547.88,20595.44
440,0.158,0.0,0.0,0.397,1.0,6.6,-23.7,-10974.32,-6341.12,23939.28,12456.78,31547.88,20522.44
460,0.0,0.232,0.0,0.462,0.0,8.79,-22.23,-10666.32,-265.12,22223.28,20756.78,31547.88,19504.44
480,0.0,0.121,1.0,0.401,0.26,11.83,-19.75,-14550.32,4946.88,19755.28,20541.78,31547.88,15855.44
500,0.158,0.0,0.99,0.356,1.0,15.27,-17.77,-16434.32,6322.88,19075.28,15150.78,31547.88,12629.44
520,0.158,0.0,0.468,0.376,1.0,18.69,-16.33,-16322.32,6530.88,16983.28,11496.78,31547.88,12911.44
540,0.158,0.0,1.0,0.383,0.0,22.95,-14.86,-16946.32,6338.88,13127.28,12376.78,31547.88,14210.44
560,0.217,0.0,0.227,0.437,1.0,27.82,-12.11,-18302.32,7902.88,11795.28,12657.78,31547.88,14214.44
580,0.276,0.0,0.227,0.39,1.0,32.8,-9.34,-18930.32,7946.88,11195.28,11818.78,31547.88,13076.44
600,0.041,0.0,0.0,0.352,0.0,37.81,-4.72,-19522.32,8710.88,9007.28,9875.78,29595.88,12103.44
620,0.0,0.121,0.0,0.284,0.0,41.86,2.56,-17982.32,8594.88,6547.28,7035.78,26878.88,10158.44
639,0.217,0.0,0.0,0.287,0.0,45.31,9.89,-18478.32,9182.88,5571.28,5484.78,26557.88,9141.44
660,0.0,0.0,0.227,0.259,0.0,48.48,17.07,-19986.32,9394.88,5119.28,4897.78,24682.88,9084.44
680,0.0,0.0,1.0,0.316,1.0,51.11,23.25,-22746.32,10730.88,5623.28,5973.78,20741.88,8221.44
700,0.0,0.0,1.0,0.274,1.0,52.48,29.37,-21574.32,11458.88,4547.28,4518.78,16485.88,7112.44
720,0.041,0.0,1.0,0.282,0.0,53.1,35.97,-20598.32,10922.88,2615.28,2877.78,14642.88,6182.44
740,0.0,0.0,1.0,0.293,0.685,53.54,41.88,-21414.32,11838.88,2875.28,2474.78,13276.88,4790.44
760,0.0,0.0,0.0,0.263,0.174,53.68,46.92,-23526.32,13222.88,3371.28,1799.78,10045.88,3573.44
779,0.041,0.0,1.0,0.296,0.0,53.14,51.91,-22494.32,12706.88,2727.28,367.78,6524.88,3033.44
799,0.0,0.0,1.0,0.29,1.0,52.34,56.71,-21946.32,12654.88,2219.28,-884.22,5648.88,2302.44
820,0.158,0.038,1.0,0.409,1.0,51.94,61.38,-23306.32,12286.88,2315.28,-1028.22,6002.88,1672.44
839,0.0,0.0,0.0,0.324,1.0,51.66,65.87,-24670.32,12378.88,2847.28,398.78,4894.88,1267.44
859,0.0,0.0,1.0,0.347,1.0,51.02,69.95,-25302.32,13478.88,2975.28,962.78,2707.88,1271.44
879,0.158,0.0,0.0,0.344,1.0,49.91,74.02,-24106.32,13374.88,2083.28,-48.22,903.88,1073.44
899,0.276,0.0,0.0,0.32,1.0,49.06,77.86,-24386.32,13030.88,2135.28,-858.22,1558.88,342.44
919,0.0,0.0,0.0,0.325,0.0,48.51,81.36,-25170.32,13078.88,2871.28,-548.22,1970.88,18.44
939,0.1,0.0,0.0,0.294,1.0,48.0,84.52,-26534.32,13654.88,3531.28,624.78,922.88,276.44
959,0.0,0.0,0.0,0.296,0.0,47.26,87.62,-26166.32,13738.88,3031.28,134.78,-185.12,292.44
979,0.0,0.0,1.0,0.309,1.0,46.63,90.72,-25754.32,13346.88,2543.28,-540.22,427.88,357.44
999,0.1,0.0,0.227,0.279,1.0,46.21,93.61,-26298.32,13422.88,2895.28,-194.22,918.88,202.44
1019,0.0,0.0,0.0,0.344,0.77,45.93,96.04,-27458.32,13610.88,3767.28,-140.22,467.88,69.44
1039,0.276,0.0,1.0,0.291,1.0,45.47,98.29,-27494.32,13934.88,3411.28,-965.22,-536.12,439.44
1060,0.0,0.018,0.0,0.296,1.0,44.88,100.72,-26294.32,13218.88,2735.28,-1564.22,-1154.12,602.44
1080,0.041,0.0,0.468,0.304,1.0,44.34,103.05,-25734.32,13338.88,2679.28,-1428.22,-550.12,346.44
1100,0.1,0.0,0.99,0.3,0.43,44.07,105.29,-26146.32,13062.88,2939.28,-1111.22,235.88,179.44
1119,0.0,0.0,1.0,0.286,0.0,43.89,107.58,-26414.32,13018.88,2967.28,-69.22,383.88,249.44
1139,0.0,0.0,0.789,0.296,1.0,43.72,109.54,-26622.32,13314.88,3443.28,46.78,99.88,257.44
1160,0.0,0.0,1.0,0.283,1.0,43.47,111.38,-26450.32,13530.88,3311.28,-152.22,-205.12,239.44
1179,0.041,0.0,0.0,0.313,0.0,43.23,113.33,-25550.32,13178.88,2687.28,-586.22,404.88,183.44
1200,0.0,0.0,0.106,0.324,0.685,43.26,114.9,-26450.32,13514.88,3575.28,-146.22,1164.88,122.44
1219,0.0,0.073,0.749,0.335,0.0,43.29,116.22,-27394.32,13782.88,4203.28,649.78,337.88,467.44
1239,0.0,0.0,0.0,0.292,1.0,43.01,117.54,-26962.32,14250.88,3627.28,322.78,-878.12,481.44
1260,0.0,0.0,0.0,0.294,0.0,42.66,119.06,-25574.32,13462.88,2479.28,-1220.22,-601.12,-133.56
1280,0.0,0.184,0.508,0.326,0.515,42.58,120.55,-25782.32,12818.88,2647.28,-1569.22,198.88,-447.56
1299,0.0,0.0,0.307,0.299,0.0,42.68,121.9,-26686.32,12990.88,3407.28,-87.22,227.88,16.44
1319,0.0,0.0,0.147,0.394,0.0,42.59,123.17,-26410.32,13618.88,3211.28,415.78,-135.12,139.44
1340,0.0,0.0,1.0,0.294,0.0,42.4,124.27,-26054.32,13722.88,2811.28,-1012.22,-444.12,-245.56
1360,0.0,0.0,1.0,0.294,1.0,42.33,125.21,-26266.32,13082.88,3135.28,-1958.22,-694.12,-363.56
1379,0.0,0.177,0.147,0.372,0.0,42.37,126.16,-26194.32,12810.88,3615.28,-713.22,-596.12,96.44
1399,0.0,0.0,1.0,0.264,0.004,42.46,127.18,-26506.32,13262.88,3735.28,997.78,-247.12,630.44
1419,0.041,0.0,0.0,0.296,1.0,42.45,128.05,-26390.32,13898.88,3575.28,876.78,-138.12,454.44
1439,0.0,0.0,0.0,0.313,1.0,42.41,128.88,-25578.32,13658.88,2911.28,-748.22,302.88,22.44
1460,0.0,0.0,0.0,0.255,0.0,42.65,129.52,-26042.32,13534.88,3223.28,-1232.22,1461.88,-51.56
1480,0.1,0.0,0.0,0.3,0.0,43.0,130.17,-26762.32,13490.88,3591.28,-92.22,1459.88,-136.56
1500,0.0,0.0,0.0,0.318,0.0,43.23,130.86,-27226.32,13862.88,3675.28,1172.78,676.88,-118.56
1519,0.0,0.0,0.0,0.252,1.0,43.27,131.6,-26618.32,13746.88,3095.28,438.78,0.88,-118.56
1539,0.041,0.0,0.0,0.253,1.0,43.42,132.41,-26274.32,13042.88,2947.28,-43.22,323.88,-181.56
1560,0.0,0.0,0.0,0.244,0.685,43.64,133.09,-26354.32,13170.88,3083.28,-111.22,756.88,-174.56
1579,0.0,0.018,0.0,0.286,0.0,43.95,133.74,-26654.32,12882.88,3147.28,-309.22,833.88,-39.56
1599,0.041,0.08,0.0,0.233,0.0,44.25,134.25,-27054.32,12882.88,3559.28,-43.22,338.88,285.44
1619,0.0,0.184,0.0,0.229,0.0,44.31,134.75,-26626.32,13270.88,3339.28,248.78,-582.12,631.44
1639,0.0,0.045,0.0,0.247,1.0,44.26,135.24,-25978.32,13594.88,3003.28,119.78,-454.12,646.44
1659,0.0,0.0,1.0,0.232,0.0,44.36,135.63,-26006.32,13442.88,3159.28,-208.22,228.88,318.44
1679,0.0,0.19,0.0,0.226,0.089,44.55,135.92,-26478.32,13522.88,3447.28,-7.22,397.88,136.44
1699,0.0,0.0,0.829,0.247,1.0,44.68,136.19,-26630.32,13606.88,3427.28,177.78,-24.12,153.44
1719,0.0,0.0,0.0,0.268,1.0,44.71,136.6,-26250.32,13574.88,2939.28,265.78,-227.12,77.44
1740,0.0,0.0,0.0,0.257,0.0,44.77,136.96,-26150.32,13522.88,2839.28,-110.22,-20.12,-220.56
1760,0.0,0.0,0.0,0.257,0.0,44.9,137.22,-26318.32,13266.88,3035.28,-520.22,-93.12,-304.56
1780,0.0,0.0,1.0,0.273,0.089,45.0,137.43,-26418.32,13458.88,3223.28,-109.22,-248.12,144.44
1799,0.0,0.0,0.0,0.206,0.0,45.14,137.61,-26482.32,13434.88,3347.28,96.78,-223.12,240.44
1819,0.0,0.0,0.0,0.188,1.0,45.24,137.83,-26102.32,13418.88,3123.28,102.78,-121.12,96.44
1839,0.0,0.0,1.0,0.229,1.0,45.38,138.07,-26002.32,13226.88,2927.28,-327.22,192.88,21.44
1859,0.0,0.018,0.789,0.249,1.0,45.64,138.18,-26534.32,13354.88,3199.28,-267.22,535.88,66.44
1879,0.0,0.0,1.0,0.204,0.0,45.86,138.16,-26734.32,13686.88,3415.28,-287.22,288.88,22.44
1899,0.0,0.0,0.0,0.2,0.94,45.96,138.16,-26342.32,13514.88,3231.28,-563.22,-235.12,88.44
1919,0.0,0.204,0.0,0.186,0.0,46.05,138.29,-25982.32,13442.88,3023.28,-90.22,-137.12,270.44
1939,0.0,0.0,0.0,0.222,1.0,46.18,138.34,-26054.32,13738.88,3035.28,-78.22,404.88,142.44
1959,0.0,0.0,0.0,0.177,0.94,46.43,138.35,-26370.32,13526.88,3279.28,-62.22,614.88,186.44
1979,0.0,0.0,0.066,0.227,1.0,46.62,138.37,-26030.32,13698.88,3255.28,268.78,654.88,511.44
1999,0.0,0.0,1.0,0.19,0.685,46.82,138.44,-26154.32,13802.88,2859.28,85.78,958.88,249.44
2019,0.0,0.0,0.548,0.225,0.0,47.12,138.52,-26534.32,13462.88,3131.28,398.78,992.88,-140.56
2039,0.0,0.0,0.0,0.145,1.0,47.36,138.62,-26450.32,13546.88,3031.28,546.78,737.88,-110.56
2059,0.0,0.0,0.347,0.192,0.0,47.59,138.63,-26558.32,13342.88,3227.28,122.78,379.88,118.44
2079,0.0,0.0,0.0,0.231,0.0,47.78,138.67,-26366.32,13218.88,2959.28,-187.22,249.88,104.44
2099,0.0,0.0,0.428,0.217,0.0,47.95,138.72,-26238.32,13166.88,2939.28,-146.22,257.88,284.44
2119,0.0,0.0,1.0,0.24,0.0,48.14,138.79,-26106.32,13374.88,2887.28,252.78,582.88,521.44
2139,0.0,0.0,1.0,0.275,1.0,48.37,138.79,-26326.32,13494.88,3055.28,335.78,808.88,653.44
2159,0.0,0.0,0.0,0.26,0.0,48.51,138.76,-26390.32,13750.88,2919.28,296.78,449.88,430.44
2179,0.0,0.0,0.629,0.223,1.0,48.52,138.77,-26102.32,13694.88,2579.28,-2.22,-124.12,139.44
2199,0.0,0.0,0.0,0.26,1.0,48.56,138.83,-25650.32,13482.88,2539.28,11.78,236.88,50.44
2219,0.0,0.0,0.0,0.19,0.0,48.71,138.79,-26126.32,13566.88,2807.28,100.78,537.88,111.44
2239,0.0,0.0,0.0,0.241,0.94,48.84,138.67,-26286.32,13710.88,3123.28,330.78,290.88,68.44
2260,0.0,0.0,0.187,0.209,0.0,48.89,138.51,-26242.32,13794.88,2915.28,-197.22,-111.12,-127.56
2280,0.0,0.0,0.709,0.269,0.0,48.95,138.41,-25990.32,13242.88,2819.28,-596.22,-296.12,-207.56
2299,0.0,0.0,1.0,0.275,1.0,49.02,138.29,-25782.32,13422.88,3035.28,-22.22,-36.12,182.44
2319,0.041,0.0,0.669,0.254,0.0,49.13,138.17,-26202.32,13562.88,3047.28,202.78,-2.12,395.44
2339,0.0,0.0,1.0,0.158,1.0,49.23,138.0,-26306.32,13826.88,3019.28,150.78,125.88,197.44
2360,0.0,0.0,0.0,0.225,0.0,49.32,137.76,-26338.32,13754.88,2907.28,-557.22,-14.12,-170.56
2379,0.041,0.0,0.0,0.252,0.0,49.43,137.56,-26162.32,13450.88,2907.28,-690.22,8.88,-162.56
2399,0.0,0.0,0.428,0.274,1.0,49.6,137.51,-26278.32,13278.88,3023.28,365.78,91.88,262.44
2419,0.0,0.0,0.0,0.283,0.515,49.74,137.52,-26342.32,13550.88,2947.28,1051.78,186.88,486.44
2439,0.0,0.0,0.829,0.287,0.0,49.83,137.48,-26402.32,13830.88,2683.28,645.78,156.88,255.44
2459,0.158,0.156,1.0,0.206,1.0,49.84,137.27,-26062.32,14006.88,2615.28,-364.22,4.88,-240.56
2480,0.041,0.0,0.0,0.226,1.0,49.92,137.02,-25990.32,13446.88,2735.28,-1079.22,-25.12,-589.56
2499,0.0,0.0,0.0,0.214,0.0,50.07,136.85,-26102.32,13238.88,2939.28,-454.22,54.88,-391.56
2519,0.217,0.0,1.0,0.257,1.0,50.21,136.8,-26358.32,13226.88,3059.28,602.78,-234.12,188.44
2539,0.041,0.0,1.0,0.265,1.0,50.23,136.76,-26142.32,13518.88,2943.28,840.78,-567.12,495.44
2559,0.041,0.0,0.0,0.269,0.0,50.18,136.62,-25946.32,13798.88,2687.28,191.78,-597.12,390.44
2579,0.041,0.0,1.0,0.2,0.855,50.2,136.37,-25926.32,13870.88,2747.28,-471.22,-157.12,58.44
2599,0.0,0.0,0.789,0.266,0.0,50.37,136.15,-26242.32,13426.88,2955.28,-371.22,187.88,-3.56
2619,0.0,0.0,1.0,0.227,0.0,50.51,135.97,-26394.32,13790.88,2935.28,359.78,259.88,134.44
2639,0.0,0.0,0.0,0.269,0.0,50.6,135.73,-26630.32,13774.88,3075.28,129.78,-365.12,120.44
2659,0.1,0.135,1.0,0.226,0.0,50.64,135.61,-26178.32,13670.88,2703.28,170.78,-337.12,67.44
2680,0.0,0.0,0.0,0.236,0.0,50.75,135.51,-25986.32,13434.88,2603.28,-125.22,203.88,-100.56
2700,0.0,0.0,0.0,0.233,0.0,50.98,135.32,-26166.32,13466.88,2815.28,-318.22,765.88,-249.56
2720,0.0,0.0,0.0,0.186,0.0,51.23,135.08,-26422.32,13450.88,2983.28,-308.22,667.88,-138.56
2739,0.041,0.0,0.0,0.174,0.855,51.39,135.0,-26098.32,13378.88,2603.28,-66.22,469.88,141.44
2759,0.0,0.0,0.0,0.186,0.0,51.51,134.9,-25990.32,13546.88,2615.28,69.78,450.88,201.44
2779,0.0,0.0,0.066,0.292,0.0,51.62,134.76,-26150.32,13602.88,2755.28,145.78,205.88,216.44
2799,0.0,0.0,0.0,0.285,0.0,51.68,134.56,-26222.32,13802.88,2943.28,291.78,-111.12,262.44
2819,0.0,0.0,0.0,0.205,0.0,51.73,134.33,-26158.32,13670.88,2883.28,-104.22,-190.12,68.44
2839,0.0,0.0,0.789,0.276,1.0,51.81,134.22,-26014.32,13414.88,2647.28,-89.22,23.88,-18.56
2859,0.0,0.0,1.0,0.215,1.0,51.86,134.21,-26110.32,13514.88,2519.28,506.78,-56.12,214.44
2879,0.0,0.101,0.0,0.268,0.94,51.92,134.04,-26186.32,13794.88,2855.28,462.78,-93.12,208.44
2899,0.0,0.0,1.0,0.205,1.0,52.01,133.81,-26370.32,13590.88,2759.28,-420.22,-88.12,-70.56
2919,0.0,0.0,0.0,0.321,0.0,52.1,133.55,-26070.32,13390.88,2827.28,-793.22,-55.12,-80.56
2940,0.0,0.025,0.0,0.229,0.0,52.23,133.33,-26138.32,13182.88,3111.28,-216.22,-195.12,343.44
2959,0.0,0.018,0.0,0.258,0.0,52.33,133.22,-26038.32,13630.88,3047.28,888.78,105.88,730.44
2979,0.0,0.0,0.0,0.241,0.0,52.4,133.04,-26050.32,14050.88,2823.28,509.78,363.88,232.44
