timestamp,flex_1,flex_2,flex_3,flex_4,flex_5,kalman_pitch,kalman_roll,acc_x,acc_y,acc_z,gyro_x,gyro_y,gyro_z
0,1.0,0.0,0.255,0.424,0.0,-20.12,-5.07,-1168.16,1024.48,18061.52,602.34,2236.98,36.42
20,1.0,0.115,1.0,0.104,1.0,-30.74,-14.39,-592.16,-463.52,17457.52,603.34,3723.98,-539.58
40,1.0,0.201,0.0,0.653,1.0,-34.02,-18.29,-1380.16,-787.52,18389.52,1596.34,5874.98,-986.58
60,1.0,0.0,0.438,0.243,0.233,-34.86,-18.74,-2540.16,492.48,19641.52,2464.34,5692.98,-643.58
80,1.0,0.104,0.0,0.0,0.974,-35.98,-18.27,-2448.16,1560.48,19253.52,2583.34,3330.98,76.42
99,1.0,0.505,1.0,0.0,0.072,-37.15,-18.25,-2584.16,1516.48,18269.52,2158.34,2607.98,712.42
120,1.0,0.018,0.833,0.069,1.0,-38.25,-18.43,-1792.16,1304.48,18973.52,621.34,1339.98,586.42
140,1.0,0.499,0.468,0.473,0.813,-39.23,-19.37,-1960.16,320.48,18909.52,-1072.66,-321.02,1408.42
160,1.0,0.0,0.0,0.173,0.0,-40.28,-20.68,-1320.16,-771.52,18705.52,-738.66,-1124.02,2088.42
180,1.0,0.0,0.802,0.104,1.0,-41.36,-21.19,-1508.16,344.48,18557.52,357.34,-1560.02,1884.42
200,1.0,0.127,0.468,0.0,0.0,-42.2,-21.43,-1684.16,620.48,19709.52,-243.66,-2603.02,1545.42
220,1.0,0.436,0.0,0.0,0.233,-42.97,-22.18,-940.16,-907.52,20589.52,-1075.66,-3238.02,368.42
239,0.488,0.127,0.286,0.194,1.0,-43.69,-22.52,1451.84,96.48,20137.52,-541.66,819.98,-926.58
260,0.488,0.0,0.073,0.09,0.813,-43.01,-22.67,1811.84,-999.52,21393.52,1874.34,8900.98,-675.58
280,0.514,0.0,0.985,0.173,0.0,-40.83,-22.25,-1956.16,-1011.52,22605.52,4961.34,14311.98,-796.58
300,0.722,0.104,0.681,0.111,1.0,-37.75,-21.06,-5404.16,780.48,28265.52,5161.34,14221.98,1045.42
320,0.445,0.0,0.0,0.0,0.0,-35.76,-20.19,-3504.16,-455.52,26777.52,5824.34,11131.98,3467.42
340,0.264,0.705,0.498,0.132,0.233,-34.16,-19.14,2103.84,-115.52,24501.52,8034.34,16995.98,2209.42
360,0.412,0.127,0.0,0.097,0.588,-30.52,-16.59,367.84,3948.48,28541.52,12423.34,28145.98,1360.42
380,0.472,0.167,1.0,0.034,0.395,-25.74,-14.01,-5116.16,1968.48,30357.52,16005.34,31514.98,3012.42
400,0.205,0.0,0.255,0.215,0.878,-20.92,-11.17,-7524.16,2556.48,30197.52,18447.34,31514.98,5508.42
420,0.416,0.201,0.0,0.0,0.0,-16.16,-6.68,-9064.16,7376.48,30353.52,25689.34,31514.98,9013.42
440,0.511,0.0,1.0,0.0,0.298,-11.01,-2.2,-13420.16,7584.48,28597.52,27153.34,31514.98,10492.42
460,0.254,0.488,0.073,0.104,1.0,-5.51,1.82,-17864.16,7636.48,31025.52,26180.34,31514.98,12812.42
480,0.274,0.098,0.012,0.695,0.201,0.27,7.03,-22160.16,12580.48,29897.52,30800.34,31514.98,14229.42
500,0.268,0.069,1.0,0.0,0.0,5.43,11.45,-18896.16,10644.48,26157.52,28275.34,31514.98,7840.42
520,0.337,0.287,0.0,0.0,0.0,10.72,14.45,-20804.16,10112.48,24489.52,20304.34,31514.98,-829.58
540,0.34,0.201,1.0,0.0,0.749,15.88,17.31,-21460.16,11044.48,23033.52,18620.34,31514.98,-3309.58
560,0.34,0.201,0.438,0.584,0.459,20.48,20.3,-20340.16,11164.48,21877.52,19909.34,30447.98,-2803.58
580,0.294,0.201,0.559,0.633,0.781,24.64,22.99,-19160.16,9564.48,18973.52,19746.34,28835.98,-2232.58
600,0.379,0.144,0.0,0.723,0.0,29.19,25.8,-20572.16,9720.48,16465.52,19148.34,28840.98,-2006.58
620,0.531,0.218,0.65,0.361,0.298,33.56,29.23,-20960.16,10668.48,13533.52,18047.34,26418.98,-1579.58
640,0.465,0.23,0.468,0.542,0.0,37.83,33.09,-21356.16,9716.48,10773.52,17173.34,22468.98,-710.58
660,0.511,0.075,0.0,0.765,0.298,41.26,38.23,-21376.16,10432.48,8265.52,16012.34,17716.98,496.42
680,0.251,0.155,0.0,0.152,0.395,43.56,44.19,-21720.16,11488.48,5825.52,13838.34,12949.98,937.42
700,0.152,0.127,1.0,0.438,0.0,45.15,50.47,-21912.16,11608.48,3969.52,12029.34,9930.98,888.42
720,0.304,0.087,0.195,0.326,0.0,46.34,56.41,-22932.16,12504.48,3353.52,11296.34,8116.98,1441.42
740,0.366,0.121,0.0,0.0,0.459,47.06,61.98,-23904.16,12960.48,3097.52,10557.34,4911.98,2064.42
760,0.412,0.172,0.0,0.0,1.0,46.99,67.32,-23616.16,13084.48,2109.52,8675.34,835.98,1992.42
780,0.34,0.0,1.0,0.0,0.0,46.09,72.26,-22988.16,13788.48,1429.52,7154.34,-3092.02,1590.42
800,0.416,0.104,0.0,0.0,1.0,44.57,76.7,-22868.16,14236.48,1837.52,6625.34,-7458.02,1932.42
820,0.34,0.075,0.0,0.145,0.491,42.28,80.68,-22240.16,15004.48,2617.52,7177.34,-12356.02,3270.42
840,0.268,0.132,0.0,0.0,1.0,39.24,83.5,-21064.16,14228.48,6077.52,7749.34,-18966.02,3873.42
860,0.261,0.379,0.0,0.431,1.0,35.0,84.15,-18736.16,12920.48,10981.52,7560.34,-25550.02,3356.42
880,0.241,0.161,1.0,0.0,1.0,29.14,82.96,-16344.16,11968.48,14889.52,4964.34,-32037.02,1068.42
900,0.294,0.344,0.286,0.125,1.0,22.35,80.15,-13504.16,12096.48,22101.52,839.34,-34020.02,-2824.58
920,0.146,0.023,0.0,0.0,0.0,15.31,76.43,-9292.16,12456.48,30385.52,-2763.66,-34020.02,-6856.58
940,0.083,0.195,0.073,0.125,0.298,8.2,72.18,-5144.16,11532.48,33393.52,-5911.66,-34020.02,-11866.58
960,0.0,0.23,0.863,0.013,0.91,1.76,67.43,-7428.16,9276.48,33857.52,-8536.66,-34020.02,-17211.58
980,0.347,0.264,0.0,0.326,1.0,-2.58,62.28,-16076.16,5364.48,32009.52,-9300.66,-29913.02,-20307.58
1000,0.34,0.029,0.316,0.132,0.974,-3.4,57.55,-25092.16,5952.48,29793.52,-8611.66,-16278.02,-15764.58
1020,0.379,0.109,0.772,0.528,0.813,-1.37,54.13,-21444.16,7676.48,21453.52,-4487.66,2110.98,-8162.58
1039,0.103,0.104,1.0,0.34,0.717,1.74,52.33,-19084.16,9564.48,17605.52,165.34,11038.98,189.42
1060,0.31,0.023,0.286,0.104,0.523,4.93,52.0,-19688.16,10980.48,16857.52,6488.34,11691.98,9847.42
1080,0.093,0.018,0.468,0.083,0.878,6.95,53.03,-18204.16,13784.48,15673.52,9941.34,7734.98,13801.42
1100,0.129,0.018,0.681,0.118,1.0,7.93,53.78,-17900.16,14780.48,15973.52,7634.34,2375.98,10628.42
1120,0.05,0.069,1.0,0.097,0.0,8.55,53.68,-18784.16,14740.48,17381.52,3964.34,-652.02,5083.42
1139,0.222,0.207,0.0,0.0,0.717,8.97,53.03,-19176.16,14708.48,17961.52,808.34,-2155.02,586.42
1160,0.238,0.0,0.559,0.257,0.0,9.43,51.69,-19756.16,13260.48,18741.52,-1456.66,-2885.02,-1945.58
1180,0.004,0.19,0.559,0.0,0.105,9.91,50.1,-19068.16,12348.48,18625.52,-2512.66,-2104.02,-2434.58
1200,0.182,0.052,0.103,0.25,1.0,10.74,48.63,-19464.16,12176.48,18521.52,-1978.66,-198.02,-1370.58
1219,0.1,0.0,0.012,0.0,0.813,11.83,47.69,-20796.16,13040.48,18805.52,225.34,444.98,1566.42
1240,0.064,0.132,0.073,0.0,0.813,12.77,47.13,-21128.16,13772.48,18861.52,1707.34,-297.02,3451.42
1260,0.248,0.167,0.0,0.041,0.0,13.47,46.74,-20292.16,14068.48,18749.52,2224.34,-645.02,3715.42
1280,0.0,0.115,0.0,0.0,1.0,14.21,46.28,-20392.16,14200.48,18929.52,1725.34,-110.02,2400.42
1299,0.087,0.207,1.0,0.0,0.0,15.0,45.64,-20124.16,13896.48,18389.52,132.34,315.98,346.42
1320,0.0,0.098,0.438,0.0,1.0,15.79,44.84,-20460.16,13752.48,18765.52,-619.66,295.98,-480.58
1340,0.416,0.012,0.225,0.013,0.813,16.47,44.15,-20480.16,13764.48,18813.52,-139.66,-261.02,120.42
1360,0.251,0.046,0.225,0.0,0.201,17.02,43.4,-20428.16,13528.48,19041.52,-225.66,-814.02,356.42
1379,0.106,0.207,0.0,0.166,0.0,17.47,42.69,-19588.16,13188.48,18761.52,-34.66,-611.02,486.42
1399,0.05,0.161,0.407,0.0,0.459,18.02,42.19,-19924.16,13604.48,18797.52,693.34,-65.02,885.42
1420,0.143,0.052,0.316,0.034,0.298,18.55,41.85,-20048.16,13820.48,18657.52,1279.34,-137.02,1542.42
1440,0.0,0.132,1.0,0.236,0.201,19.02,41.59,-20044.16,14156.48,18605.52,1193.34,-380.02,1497.42
1460,0.0,0.218,0.286,0.0,1.0,19.44,41.19,-19712.16,13928.48,18705.52,557.34,-142.02,687.42
1479,0.34,0.0,0.316,0.0,0.717,19.88,40.81,-19808.16,14240.48,18701.52,235.34,117.98,7.42
1499,0.317,0.018,0.134,0.062,1.0,20.31,40.41,-19948.16,13976.48,18805.52,323.34,-64.02,160.42
1519,0.248,0.138,0.62,0.104,1.0,20.68,40.12,-19724.16,14124.48,18545.52,469.34,-152.02,521.42
1540,0.294,0.109,0.0,0.104,1.0,20.95,39.76,-19524.16,13768.48,18597.52,427.34,-530.02,868.42
1559,0.277,0.098,0.0,0.013,1.0,21.21,39.58,-19360.16,14248.48,18441.52,779.34,-249.02,983.42
1579,0.465,0.098,1.0,0.104,0.749,21.53,39.36,-19804.16,14348.48,18489.52,428.34,-237.02,410.42
1599,0.136,0.069,0.286,0.0,0.813,21.8,39.08,-19860.16,14388.48,18685.52,60.34,-473.02,83.42
1619,0.373,0.201,0.255,0.194,0.813,21.98,38.76,-19732.16,14228.48,18693.52,-214.66,-882.02,15.42
1640,0.406,0.104,0.073,0.104,0.717,22.14,38.4,-19904.16,14100.48,18941.52,-165.66,-1133.02,78.42
1660,0.432,0.161,0.073,0.006,0.813,22.34,38.07,-20132.16,14056.48,19117.52,96.34,-1027.02,121.42
1679,0.31,0.012,0.134,0.104,0.0,22.52,37.82,-19888.16,13988.48,19109.52,576.34,-873.02,634.42
1700,0.363,0.127,0.0,0.0,0.0,22.71,37.64,-19732.16,14052.48,19077.52,873.34,-493.02,789.42
1719,0.314,0.075,0.347,0.0,0.298,22.94,37.49,-19688.16,14040.48,18881.52,901.34,-257.02,620.42
1739,0.268,0.012,0.0,0.118,0.298,23.15,37.3,-19856.16,14096.48,19157.52,724.34,-375.02,522.42
1759,0.268,0.499,0.0,0.326,1.0,23.34,37.08,-19992.16,14108.48,19337.52,520.34,-477.02,414.42
1780,0.343,0.15,0.0,0.0,0.137,23.48,36.84,-19496.16,13888.48,19005.52,321.34,-396.02,150.42
1799,0.156,0.373,0.255,0.034,0.137,23.74,36.6,-19748.16,14096.48,19057.52,64.34,229.98,-34.58
1819,0.254,0.0,0.0,0.0,0.395,24.04,36.44,-20048.16,14136.48,19013.52,360.34,258.98,327.42
1839,0.31,0.098,0.742,0.222,0.0,24.18,36.35,-19644.16,14164.48,18949.52,771.34,-286.02,809.42
1860,0.33,0.167,1.0,0.0,0.233,24.3,36.29,-19604.16,14044.48,18693.52,785.34,-514.02,819.42
1879,0.172,0.0,1.0,0.0,0.813,24.39,36.22,-19380.16,14164.48,18797.52,647.34,-311.02,441.42
1899,0.202,0.109,0.195,0.0,1.0,24.51,36.1,-19476.16,14152.48,18981.52,468.34,-51.02,137.42
1919,0.251,0.127,0.286,0.0,0.813,24.69,35.93,-19784.16,13968.48,19085.52,324.34,-28.02,180.42
1939,0.159,0.0,1.0,0.111,0.0,24.8,35.81,-19384.16,14016.48,18813.52,314.34,-63.02,454.42
1959,0.106,0.098,0.0,0.069,1.0,24.86,35.69,-19284.16,14116.48,18953.52,302.34,-181.02,530.42
1979,0.33,0.075,1.0,0.062,0.427,24.96,35.57,-19512.16,14176.48,19001.52,187.34,-46.02,251.42
1999,0.31,0.018,0.0,0.0,0.0,25.08,35.43,-19604.16,14356.48,19141.52,-43.66,103.98,-208.58
2020,0.287,0.035,0.924,0.0,1.0,25.2,35.31,-19616.16,14228.48,18829.52,-164.66,-26.02,-171.58
2040,0.324,0.0,1.0,0.104,0.0,25.25,35.14,-19544.16,13956.48,18941.52,-112.66,-410.02,391.42
2060,0.31,0.161,1.0,0.194,0.0,25.24,35.05,-19204.16,13960.48,19045.52,348.34,-382.02,1084.42
2079,0.208,0.0,1.0,0.104,0.072,25.35,35.1,-19504.16,14616.48,19165.52,766.34,362.98,820.42
2099,0.314,0.0,0.833,0.145,0.0,25.48,35.1,-19432.16,14368.48,18805.52,353.34,460.98,105.42
2119,0.208,0.098,0.924,0.0,0.0,25.56,35.1,-19328.16,14460.48,18929.52,270.34,357.98,1.42
2139,0.521,0.31,0.0,0.194,1.0,25.63,35.04,-19340.16,14092.48,18801.52,159.34,131.98,117.42
2159,0.643,0.081,0.0,0.152,0.717,25.63,35.04,-19232.16,14320.48,18789.52,337.34,-147.02,396.42
2179,0.277,0.104,0.0,0.326,1.0,25.64,35.03,-19464.16,14388.48,18917.52,213.34,-219.02,305.42
2199,0.324,0.0,0.0,0.403,0.0,25.56,35.01,-18816.16,14224.48,18761.52,115.34,-193.02,86.42
2219,0.317,0.0,0.0,0.549,1.0,25.64,34.98,-19436.16,14312.48,19073.52,284.34,308.98,-165.58
2239,0.238,0.367,0.0,0.0,0.137,25.74,34.92,-19580.16,14056.48,18877.52,50.34,225.98,-226.58
2259,0.393,0.413,0.0,0.0,0.588,25.75,34.88,-19036.16,13924.48,18597.52,105.34,79.98,51.42
2279,0.287,0.046,0.347,0.062,0.0,25.82,34.87,-19444.16,14192.48,18897.52,241.34,241.98,338.42
2299,0.238,0.0,0.0,0.0,0.395,25.84,34.93,-19308.16,14348.48,18653.52,369.34,96.98,601.42
2319,0.498,0.138,0.0,0.208,0.0,25.8,35.02,-19024.16,14388.48,18565.52,399.34,-46.02,414.42
2339,0.297,0.132,0.742,0.104,0.0,25.81,35.02,-19280.16,14252.48,18893.52,203.34,74.98,-108.58
2359,0.287,0.0,1.0,0.201,0.813,25.81,35.06,-19424.16,14484.48,18765.52,80.34,-18.02,-231.58
2379,0.162,0.201,0.255,0.0,0.845,25.81,35.06,-19436.16,14340.48,18825.52,6.34,-158.02,-105.58
2400,0.248,0.155,0.498,0.34,1.0,25.75,35.01,-19132.16,14132.48,18785.52,-133.66,-179.02,-61.58
2420,0.488,0.109,0.0,0.0,0.0,25.74,34.95,-19080.16,14048.48,18849.52,-125.66,160.98,-149.58
2439,0.169,0.0,0.225,0.0,0.0,25.77,34.92,-19144.16,13968.48,18741.52,15.34,290.98,-44.58
2459,0.205,0.058,1.0,0.0,0.008,25.72,34.9,-18800.16,13812.48,18509.52,62.34,65.98,181.42
2479,0.419,0.528,1.0,0.681,1.0,25.63,34.94,-18752.16,14044.48,18509.52,103.34,-78.02,399.42
2499,0.287,0.104,0.286,0.0,1.0,25.6,35.0,-19384.16,14240.48,18797.52,400.34,-272.02,720.42
2519,0.235,0.0,0.681,0.055,0.684,25.5,35.14,-19248.16,14456.48,18697.52,546.34,-525.02,925.42
2539,0.409,0.419,1.0,0.0,0.298,25.42,35.25,-19412.16,14468.48,18869.52,528.34,-525.02,918.42
2559,0.386,0.0,0.711,0.333,0.878,25.32,35.31,-19320.16,14328.48,18965.52,405.34,-613.02,847.42
2579,0.422,0.121,0.0,0.138,0.491,25.21,35.37,-19216.16,14504.48,18981.52,252.34,-499.02,491.42
2599,0.379,0.379,0.65,1.0,0.169,25.12,35.39,-19212.16,14400.48,19025.52,72.34,-359.02,89.42
2619,0.264,0.104,0.772,0.0,0.0,25.07,35.34,-19292.16,14168.48,19269.52,89.34,-200.02,14.42
2639,0.264,0.0,0.0,0.0,0.523,25.03,35.33,-19328.16,14440.48,19353.52,62.34,-75.02,103.42
2659,0.31,0.201,0.559,0.0,0.781,25.01,35.32,-19452.16,14408.48,19421.52,131.34,-56.02,394.42
2679,0.291,0.195,0.316,0.034,0.781,24.98,35.34,-19392.16,14256.48,19345.52,406.34,-139.02,720.42
2699,0.199,0.608,0.924,0.0,1.0,24.97,35.38,-19428.16,14628.48,19349.52,198.34,59.98,407.42
2720,0.09,0.917,0.347,0.0,1.0,25.0,35.35,-19504.16,14612.48,19165.52,-430.66,266.98,-457.58
2740,0.258,0.0,0.134,0.062,1.0,25.03,35.24,-19468.16,14432.48,19161.52,-848.66,178.98,-813.58
2759,0.212,0.482,0.59,0.027,0.0,25.02,35.17,-19464.16,14356.48,19285.52,-444.66,64.98,-480.58
2779,0.143,0.081,1.0,0.0,1.0,25.02,35.17,-19424.16,14296.48,19229.52,-37.66,25.98,25.42
2799,0.31,0.092,0.772,0.104,0.0,25.02,35.26,-19336.16,14476.48,19113.52,302.34,202.98,433.42
2819,0.3,0.069,0.0,0.0,0.105,25.07,35.37,-19376.16,14576.48,19085.52,398.34,551.98,330.42
2839,0.59,0.121,0.0,0.0,1.0,25.12,35.4,-19296.16,14320.48,19017.52,-41.66,550.98,-185.58
2860,0.258,0.115,1.0,0.0,1.0,25.11,35.41,-18944.16,14360.48,18941.52,-215.66,523.98,-335.58
2880,0.274,0.018,0.164,0.111,1.0,25.12,35.44,-19136.16,14300.48,18841.52,-162.66,497.98,-378.58
2900,0.199,0.046,0.407,0.0,0.749,25.09,35.48,-19040.16,14416.48,18749.52,-279.66,260.98,-294.58
2919,0.373,0.029,0.347,0.563,0.0,25.05,35.47,-19112.16,14084.48,18977.52,-76.66,90.98,-57.58
2939,0.498,0.0,0.0,0.194,0.813,24.97,35.57,-18944.16,14328.48,18937.52,311.34,117.98,159.42
2959,0.218,0.253,0.0,0.055,1.0,24.89,35.69,-18848.16,14248.48,18641.52,354.34,65.98,159.42
2979,0.251,0.018,0.0,0.027,0.717,24.83,35.84,-19052.16,14364.48,18729.52,457.34,31.98,286.42
