timestamp,flex_1,flex_2,flex_3,flex_4,flex_5,kalman_pitch,kalman_roll,acc_x,acc_y,acc_z,gyro_x,gyro_y,gyro_z
0,0.886,0.6,0.007,0.785,0.195,-31.65,-2.21,-1259.12,-1432.56,17173.44,-19.34,-1626.34,-492.04
20,0.744,0.607,0.04,0.812,0.406,-37.57,-15.75,-1399.12,-2276.56,17665.44,890.66,-1394.34,-1504.04
39,0.388,0.587,0.007,0.94,0.248,-40.05,-22.12,-2327.12,-2436.56,18797.44,1988.66,-3939.34,-2939.04
58,0.388,0.52,0.0,0.812,0.0,-43.92,-27.97,-835.12,-2440.56,16069.44,3966.66,-9220.34,-3849.04
77,0.246,0.6,0.007,0.758,0.301,-48.72,-31.4,588.88,327.44,14489.44,4064.66,-8628.34,-3620.04
96,0.246,0.58,0.007,0.849,0.301,-51.79,-33.1,916.88,351.44,15685.44,2232.66,-5984.34,-3116.04
115,0.103,0.6,0.106,0.903,0.09,-53.71,-34.15,1200.88,235.44,16453.44,1052.66,-3106.34,-2558.04
134,0.459,0.587,0.106,0.503,0.0,-54.23,-35.1,1124.88,-716.56,17429.44,876.66,1685.66,-1390.04
153,0.388,0.587,0.14,0.749,0.248,-53.7,-35.98,860.88,-1680.56,18105.44,1480.66,6247.66,-1013.04
172,0.53,0.6,0.04,0.858,0.195,-52.29,-36.67,448.88,-3032.56,19293.44,2597.66,9586.66,-1618.04
191,0.744,0.66,0.106,0.794,0.09,-50.77,-37.26,1140.88,-4804.56,19657.44,5528.66,10136.66,-1788.04
210,0.886,0.573,0.0,0.876,0.934,-49.09,-36.15,-1731.12,-3872.56,22781.44,10629.66,6517.66,871.96
229,0.886,0.62,0.007,0.794,0.248,-48.2,-34.32,-639.12,-2584.56,22769.44,14292.66,4217.66,1727.96
248,0.886,0.607,0.073,0.812,0.67,-46.81,-32.27,-2763.12,-2116.56,25101.44,13812.66,4065.66,2881.96
267,1.0,0.607,0.106,0.903,0.406,-45.43,-30.05,-2347.12,-1928.56,28213.44,13664.66,3356.66,3778.96
286,1.0,0.613,0.007,0.794,0.248,-44.28,-27.8,-1651.12,-1256.56,29437.44,13591.66,2722.66,3833.96
305,1.0,0.626,0.671,0.821,0.301,-43.2,-25.78,-123.12,-980.56,29541.44,12712.66,4505.66,4267.96
324,0.957,0.653,0.106,0.83,0.0,-41.56,-24.08,12.88,-1148.56,30533.44,11216.66,8759.66,3159.96
344,0.886,0.626,0.0,0.812,0.195,-39.4,-22.68,148.88,-1700.56,32545.44,9352.66,11795.66,3196.96
364,0.886,0.633,0.106,0.839,0.142,-37.21,-21.67,456.88,-1748.56,31981.44,7538.66,13527.66,3967.96
384,0.886,0.646,0.0,0.794,0.354,-34.84,-20.88,836.88,-2164.56,31549.44,7066.66,16137.66,4376.96
404,0.886,0.646,0.0,0.776,0.195,-32.41,-20.09,1256.88,-2560.56,31301.44,7848.66,17982.66,5450.96
424,0.886,0.62,0.0,0.83,0.142,-29.89,-19.15,1052.88,-2696.56,30589.44,9663.66,19784.66,5033.96
444,0.886,0.653,0.0,0.785,0.406,-27.24,-17.97,532.88,-2060.56,29901.44,11316.66,21760.66,4925.96
464,0.886,0.646,0.073,0.858,0.248,-24.63,-16.64,504.88,-1328.56,28933.44,12521.66,23272.66,4972.96
484,0.886,0.62,0.04,0.794,0.09,-22.12,-15.28,-243.12,-876.56,28345.44,12996.66,23539.66,5166.96
504,0.886,0.646,0.106,0.839,0.301,-19.66,-13.73,-1371.12,39.44,27637.44,14080.66,23869.66,5404.96
524,0.886,0.626,0.173,0.849,0.09,-17.33,-12.26,-1747.12,691.44,26865.44,13656.66,24297.66,5006.96
544,0.886,0.646,0.0,0.867,0.248,-15.14,-11.1,-3147.12,975.44,25829.44,12165.66,23792.66,4318.96
564,0.886,0.686,0.173,0.83,0.142,-13.09,-10.09,-4199.12,1259.44,25393.44,11349.66,23063.66,3303.96
584,0.886,0.607,0.007,0.812,0.195,-11.24,-9.07,-4923.12,1723.44,24621.44,11491.66,22472.66,3079.96
604,0.886,0.633,0.106,0.785,0.09,-9.58,-7.82,-5539.12,2859.44,23429.44,12265.66,22364.66,2961.96
624,0.815,0.646,0.04,0.839,0.248,-7.9,-6.49,-7099.12,3867.44,21933.44,11989.66,22676.66,2111.96
644,0.886,0.6,0.04,0.83,0.248,-6.33,-5.23,-8467.12,4815.44,20845.44,10432.66,21749.66,1167.96
664,0.886,0.613,0.04,0.83,0.301,-4.87,-4.04,-9927.12,5915.44,20209.44,8115.66,19801.66,369.96
684,0.886,0.607,0.14,0.867,0.617,-3.76,-3.31,-10759.12,5831.44,18949.44,5324.66,17427.66,-946.04
704,0.815,0.633,0.106,0.876,0.142,-2.95,-2.9,-11671.12,5815.44,17737.44,3377.66,14939.66,-2220.04
724,0.886,0.607,0.073,0.812,0.406,-2.41,-2.61,-12315.12,5607.44,16653.44,3220.66,12672.66,-2511.04
744,0.886,0.567,0.106,0.876,0.037,-1.94,-2.02,-13155.12,5923.44,15601.44,4019.66,10602.66,-2478.04
764,0.815,0.633,0.007,0.867,0.354,-1.3,-1.25,-14211.12,6131.44,14741.44,4227.66,7943.66,-2314.04
784,0.744,0.6,0.04,0.794,0.354,-0.63,-0.57,-14979.12,6087.44,14517.44,3897.66,4592.66,-1958.04
804,0.815,0.62,0.106,0.83,0.142,-0.18,0.06,-15407.12,5975.44,15321.44,4657.66,1928.66,-990.04
824,0.744,0.587,0.206,0.858,0.406,-0.0,1.31,-15319.12,6807.44,15725.44,6043.66,816.66,-491.04
844,0.815,0.626,0.007,0.849,0.776,0.15,2.85,-15059.12,7539.44,15813.44,5879.66,1762.66,-145.04
864,0.886,0.593,0.173,0.867,1.0,0.83,3.8,-16407.12,7311.44,17981.44,4774.66,2491.66,-96.04
884,0.886,0.62,0.073,0.767,0.142,1.45,4.25,-17591.12,7023.44,19753.44,3166.66,599.66,-388.04
904,0.886,0.62,0.04,0.812,0.09,1.71,4.43,-17327.12,6863.44,20229.44,1933.66,-989.34,139.96
924,0.815,0.6,0.106,0.812,0.195,2.0,4.29,-18011.12,5859.44,21517.44,2051.66,-1314.34,-194.04
944,0.815,0.6,0.106,0.812,0.0,2.13,4.17,-19391.12,5379.44,24069.44,2948.66,-3299.34,-464.04
964,0.886,0.6,0.14,0.876,0.142,1.99,4.21,-19519.12,5339.44,25853.44,4128.66,-4632.34,646.96
984,0.886,0.607,0.007,0.83,1.0,1.84,4.36,-19215.12,5807.44,27041.44,4362.66,-4078.34,669.96
1004,0.886,0.6,0.14,0.758,0.248,2.03,3.98,-19427.12,5199.44,27065.44,1499.66,-2119.34,-261.04
1024,0.886,0.593,0.04,0.812,0.037,2.53,2.73,-20247.12,3451.44,27669.44,-2501.34,-662.34,-157.04
1044,0.886,0.607,0.106,0.794,0.301,3.11,1.11,-19827.12,1867.44,27521.44,-3410.34,483.66,2266.96
1064,0.886,0.6,0.073,0.794,0.301,3.91,-0.39,-19355.12,1715.44,26705.44,-2772.34,2332.66,5581.96
1084,0.815,0.607,0.239,0.785,0.142,4.77,-1.6,-19851.12,2103.44,27693.44,-1892.34,2727.66,8432.96
1104,0.744,0.607,0.0,0.821,0.617,5.38,-2.31,-19171.12,2627.44,27973.44,450.66,2109.66,10947.96
1124,0.886,0.607,0.106,0.812,0.0,6.02,-2.36,-17615.12,4995.44,26853.44,2006.66,3878.66,12659.96
1144,0.886,0.6,0.106,0.83,0.248,6.84,-2.24,-16767.12,7487.44,26313.44,-229.34,6349.66,12637.96
1164,0.886,0.62,0.173,0.776,0.248,8.0,-2.8,-17431.12,8355.44,24605.44,-6468.34,7789.66,10677.96
1184,0.815,0.6,0.372,0.849,0.248,9.1,-4.34,-19103.12,6843.44,25985.44,-11172.34,5888.66,9565.96
1204,0.886,0.593,0.007,0.794,0.09,9.63,-5.81,-19191.12,5811.44,27037.44,-9982.34,2521.66,10987.96
1224,0.815,0.587,0.206,0.758,0.512,9.68,-6.37,-17991.12,6235.44,27589.44,-4759.34,1028.66,12727.96
1245,0.815,0.587,0.007,0.812,0.406,9.69,-6.06,-16115.12,8067.44,26673.44,-1406.34,2879.66,13506.96
1265,0.815,0.593,0.14,0.749,0.248,10.01,-5.53,-15303.12,9291.44,26409.44,-1450.34,6025.66,13353.96
1284,0.744,0.58,0.073,0.794,0.195,10.54,-5.17,-15759.12,9135.44,26533.44,-2373.34,7165.66,13902.96
1304,0.886,0.587,0.206,0.849,0.67,11.06,-4.7,-16759.12,9667.44,26885.44,-2140.34,6094.66,15440.96
1324,0.815,0.587,0.14,0.785,0.0,11.09,-3.73,-15539.12,11187.44,27101.44,-335.34,4510.66,16956.96
1344,0.886,0.6,0.0,0.785,0.828,11.05,-2.06,-13923.12,13319.44,25521.44,1619.66,6032.66,16732.96
1364,0.815,0.593,0.106,0.776,0.195,11.48,0.21,-14807.12,16203.44,24153.44,2293.66,8245.66,14963.96
1384,0.744,0.6,0.04,0.821,0.195,12.02,2.59,-15235.12,17195.44,22633.44,1583.66,8671.66,11884.96
1404,0.886,0.607,0.04,0.794,0.248,12.33,4.83,-16555.12,17939.44,22789.44,654.66,5818.66,9711.96
1424,0.815,0.593,0.106,0.849,0.0,12.18,6.93,-16683.12,17755.44,22573.44,260.66,2630.66,7105.96
1444,0.744,0.6,0.0,0.794,0.142,11.85,8.92,-16279.12,17899.44,21089.44,-1487.34,1672.66,4517.96
1464,0.886,0.6,0.106,0.794,0.301,11.6,10.02,-17111.12,17155.44,22313.44,-5325.34,1177.66,2231.96
1484,0.815,0.607,0.04,0.785,0.195,11.03,10.3,-17419.12,15359.44,24149.44,-7695.34,-1377.34,1096.96
1504,0.886,0.587,0.007,0.776,0.881,10.32,10.48,-16715.12,13683.44,23409.44,-7212.34,-2063.34,303.96
1524,0.744,0.593,0.0,0.83,0.195,9.91,10.76,-16831.12,12023.44,22785.44,-4890.34,-653.34,-676.04
1544,0.815,0.587,0.04,0.758,0.406,9.75,11.19,-17475.12,10211.44,23297.44,-1199.34,-102.34,-484.04
1564,0.886,0.593,0.007,0.739,0.459,9.61,12.08,-18307.12,9795.44,24253.44,3138.66,-846.34,1172.96
1584,0.886,0.587,0.106,0.776,0.195,9.31,13.42,-18391.12,11215.44,24753.44,4980.66,-1900.34,2714.96
1604,0.815,0.587,0.04,0.776,0.195,8.9,14.72,-17951.12,12571.44,23893.44,2997.66,-2252.34,2808.96
1624,0.815,0.587,0.04,0.785,0.195,8.61,15.4,-18259.12,11311.44,24553.44,1002.66,-2013.34,909.96
1644,0.886,0.607,0.04,0.776,0.09,8.35,16.12,-18163.12,10315.44,25465.44,3034.66,-1602.34,337.96
1664,0.886,0.607,0.007,0.776,0.195,8.28,17.33,-18443.12,11023.44,25337.44,5846.66,-773.34,736.96
1684,0.815,0.706,0.04,0.785,0.354,8.38,18.64,-18915.12,11975.44,24825.44,5548.66,-242.34,376.96
1704,0.815,0.613,0.0,0.821,0.406,8.44,19.46,-18655.12,11599.44,24905.44,3120.66,-275.34,-0.04
1724,0.886,0.593,0.04,0.83,0.142,8.42,19.69,-17655.12,10567.44,23689.44,-61.34,-11.34,-416.04
1744,0.744,0.6,0.0,0.812,0.0,8.6,19.62,-18707.12,10567.44,23933.44,-1847.34,3.66,-1019.04
1765,0.886,0.587,0.073,0.785,0.195,8.73,19.43,-19015.12,10639.44,23905.44,-2903.34,-688.34,-806.04
1784,0.886,0.587,0.007,0.794,0.459,8.74,19.15,-18719.12,10639.44,24073.44,-3441.34,-1065.34,-733.04
1804,0.886,0.64,0.04,0.785,0.301,8.76,18.93,-18987.12,10451.44,24213.44,-2820.34,-1385.34,-464.04
1824,0.886,0.587,0.04,0.812,0.037,8.73,18.83,-19195.12,10167.44,24821.44,-1505.34,-1850.34,-114.04
1844,0.815,0.593,0.04,0.794,0.142,8.57,18.9,-18343.12,10059.44,24929.44,-196.34,-1733.34,-298.04
1864,0.886,0.587,0.106,0.821,0.195,8.55,19.07,-18431.12,10239.44,25333.44,534.66,-841.34,-292.04
1884,0.815,0.62,0.04,0.758,0.0,8.63,19.2,-18827.12,10531.44,25313.44,-70.34,-588.34,-282.04
1904,0.886,0.593,0.0,0.776,0.512,8.74,19.17,-18759.12,10207.44,25161.44,-803.34,-465.34,-337.04
1924,0.815,0.593,0.04,0.812,0.142,8.83,19.12,-18863.12,9743.44,25393.44,-303.34,-643.34,-10.04
1944,0.886,0.593,0.0,0.703,0.248,8.88,19.32,-18595.12,9995.44,25297.44,1135.66,-676.34,295.96
1964,0.815,0.593,0.14,0.812,0.248,8.98,19.69,-18687.12,10383.44,25153.44,1859.66,-462.34,414.96
1984,0.886,0.62,0.073,0.785,0.301,9.04,19.99,-18591.12,10699.44,25613.44,1300.66,-397.34,317.96
2004,0.886,0.587,0.173,0.794,0.459,9.13,20.19,-18371.12,10579.44,25205.44,683.66,-144.34,302.96
2024,0.886,0.593,0.073,0.739,0.512,9.28,20.34,-18743.12,10715.44,24921.44,165.66,-186.34,347.96
2044,0.744,0.6,0.0,0.821,0.248,9.42,20.49,-18511.12,10947.44,24685.44,-161.34,-51.34,210.96
2064,0.815,0.593,0.14,0.821,0.195,9.57,20.65,-18415.12,11115.44,24561.44,-282.34,130.66,-327.04
2084,0.815,0.587,0.173,0.839,0.301,9.7,20.71,-18863.12,10835.44,24865.44,-447.34,-386.34,-567.04
2104,0.744,0.587,0.106,0.794,0.195,9.67,20.68,-18543.12,10439.44,25093.44,-432.34,-1153.34,-437.04
2124,0.886,0.6,0.007,0.758,0.406,9.55,20.69,-17983.12,10459.44,25293.44,-174.34,-1040.34,-314.04
2144,0.601,0.587,0.206,0.776,0.037,9.56,20.67,-18099.12,10375.44,25209.44,-251.34,-451.34,-465.04
2164,0.815,0.58,0.073,0.776,0.195,9.66,20.62,-18435.12,10131.44,25173.44,-224.34,-215.34,-634.04
2184,0.886,0.587,0.14,0.839,0.301,9.74,20.67,-18563.12,10167.44,25529.44,586.66,-415.34,-199.04
2204,0.744,0.593,0.14,0.812,0.459,9.73,20.83,-18283.12,10975.44,25509.44,471.66,-622.34,23.96
2224,0.673,0.593,0.173,0.785,0.301,9.78,20.89,-18059.12,11359.44,25089.44,-782.34,-76.34,-407.04
2244,0.886,0.6,0.0,0.794,0.195,9.97,20.7,-18243.12,10975.44,24945.44,-2140.34,597.66,-1097.04
2264,0.815,0.587,0.04,0.767,0.248,10.19,20.37,-18371.12,10395.44,25065.44,-2374.34,684.66,-1496.04
2284,0.673,0.6,0.007,0.803,0.037,10.44,20.06,-18871.12,9999.44,24837.44,-2031.34,253.66,-1590.04
2304,0.886,0.62,0.0,0.776,0.67,10.55,19.78,-18979.12,9747.44,25093.44,-1440.34,-717.34,-1087.04
2324,0.815,0.587,0.206,0.812,0.248,10.58,19.58,-18559.12,9567.44,24977.44,-800.34,-871.34,-764.04
2344,0.744,0.593,0.007,0.758,0.301,10.64,19.43,-18207.12,9339.44,25269.44,-184.34,-147.34,-666.04
2364,0.744,0.587,0.0,0.812,0.09,10.81,19.34,-18423.12,9595.44,25553.44,50.66,430.66,-365.04
2384,0.815,0.593,0.007,0.794,0.301,10.99,19.2,-18515.12,9327.44,25249.44,-85.34,327.66,-41.04
2404,0.744,0.593,0.173,0.767,0.037,11.09,19.13,-18475.12,9459.44,25333.44,274.66,-86.34,541.96
2424,0.744,0.593,0.0,0.785,0.248,11.19,19.18,-18427.12,9703.44,25233.44,718.66,-46.34,770.96
2444,0.815,0.626,0.0,0.794,0.195,11.31,19.32,-18259.12,10223.44,25169.44,771.66,267.66,579.96
2464,0.744,0.587,0.007,0.703,0.195,11.46,19.43,-18347.12,10511.44,25017.44,242.66,482.66,338.96
2484,0.53,0.58,0.0,0.758,0.09,11.56,19.36,-18363.12,9991.44,24969.44,-324.34,46.66,267.96
2504,0.673,0.666,0.073,0.821,0.195,11.61,19.34,-18367.12,9843.44,25057.44,169.66,-305.34,478.96
2524,0.53,0.593,0.0,0.821,0.248,11.65,19.44,-18231.12,10227.44,25129.44,569.66,-130.34,714.96
2544,0.744,0.593,0.106,0.776,0.0,11.76,19.48,-18327.12,10463.44,25097.44,-56.34,244.66,521.96
2564,0.744,0.587,0.0,0.767,0.248,11.91,19.42,-18495.12,10167.44,25165.44,-365.34,377.66,434.96
2584,0.886,0.6,0.106,0.785,0.195,12.05,19.44,-18499.12,10215.44,25029.44,77.66,253.66,625.96
2604,0.744,0.587,0.206,0.776,0.0,12.16,19.53,-18295.12,10431.44,24917.44,319.66,338.66,628.96
2624,0.815,0.567,0.007,0.83,0.723,12.24,19.62,-18363.12,10583.44,24969.44,184.66,111.66,486.96
2644,0.815,0.593,0.0,0.758,0.459,12.31,19.77,-18267.12,10835.44,24625.44,164.66,85.66,335.96
2664,0.815,0.593,0.0,0.785,0.248,12.4,19.87,-18371.12,10943.44,24633.44,-235.34,112.66,-126.04
2684,0.886,0.58,0.073,0.648,0.512,12.45,19.85,-18399.12,10523.44,24637.44,-555.34,-242.34,-277.04
2704,0.815,0.587,0.04,0.785,0.406,12.47,19.79,-18211.12,10155.44,24717.44,-326.34,-209.34,-143.04
2724,0.886,0.553,0.04,0.685,0.195,12.54,19.77,-18299.12,9987.44,24829.44,136.66,43.66,-118.04
2744,0.886,0.626,0.073,0.785,0.142,12.6,19.77,-18543.12,10211.44,24833.44,29.66,-271.34,191.96
2764,0.815,0.646,0.0,0.785,0.406,12.6,19.75,-18283.12,10299.44,24769.44,-195.34,-363.34,88.96
2784,0.744,0.567,0.0,0.767,0.301,12.62,19.69,-18311.12,10171.44,25017.44,-229.34,-239.34,-76.04
2804,0.815,0.62,0.14,0.867,0.037,12.64,19.66,-18531.12,10171.44,25169.44,30.66,-429.34,-34.04
2824,0.815,0.58,0.007,0.812,0.301,12.64,19.7,-18403.12,10483.44,25265.44,205.66,-429.34,72.96
2844,0.744,0.593,0.14,0.758,0.248,12.68,19.69,-18271.12,10551.44,25025.44,-289.34,-25.34,-461.04
2864,0.815,0.613,0.007,0.785,0.406,12.78,19.55,-18671.12,9899.44,25217.44,-374.34,-85.34,-568.04
2884,0.886,0.587,0.04,0.812,0.301,12.82,19.42,-18491.12,9631.44,25289.44,-27.34,-227.34,-240.04
2904,0.601,0.58,0.0,0.794,0.248,12.85,19.29,-18315.12,9755.44,25489.44,-41.34,-58.34,73.96
2924,0.673,0.58,0.0,0.812,0.301,12.97,19.19,-18375.12,10007.44,25141.44,-347.34,363.66,360.96
2944,0.886,0.613,0.239,0.767,0.248,13.15,19.08,-18455.12,10147.44,24869.44,-680.34,719.66,108.96
2964,0.744,0.58,0.0,0.83,0.142,13.3,18.94,-18695.12,9951.44,25125.44,-528.34,344.66,61.96
2984,0.744,0.5,0.206,0.794,0.301,13.33,18.92,-18511.12,9947.44,25081.44,185.66,-281.34,273.96
