timestamp,flex_1,flex_2,flex_3,flex_4,flex_5,kalman_pitch,kalman_roll,acc_x,acc_y,acc_z,gyro_x,gyro_y,gyro_z
0,0.764,0.126,0.0,0.313,0.58,10.91,-7.47,-103.2,-1433.84,14415.12,-1704.1,-144.52,1428.46
19,1.0,0.05,0.0,0.296,0.633,-8.65,-18.32,460.8,-2525.84,14603.12,-1580.1,551.48,710.46
39,0.915,0.105,0.0,0.307,0.903,-18.89,-24.17,-563.2,-2733.84,15263.12,-1267.1,2463.48,159.46
59,0.964,0.057,0.0,0.318,0.741,-24.89,-28.78,-643.2,-4157.84,15483.12,-33.1,3161.48,-352.54
79,0.948,0.015,0.0,0.341,0.364,-29.48,-30.95,-451.2,-3181.84,15947.12,1820.9,2280.48,-259.54
99,0.891,0.064,0.0,0.33,0.202,-33.35,-32.46,-475.2,-2837.84,15819.12,1687.9,-15.52,-143.54
119,0.851,0.029,0.0,0.347,0.526,-36.55,-33.55,-659.2,-2773.84,15843.12,1992.9,-1267.52,-158.54
139,0.842,0.064,0.0,0.33,0.04,-39.36,-34.65,-807.2,-3225.84,15875.12,1863.9,-3446.52,514.46
158,0.826,0.001,0.0,0.347,0.526,-41.81,-35.8,-331.2,-3713.84,15791.12,1765.9,-3658.52,371.46
179,0.819,0.022,0.0,0.347,0.202,-44.0,-36.73,-787.2,-3273.84,15815.12,753.9,-4144.52,-406.54
199,0.806,0.077,0.0,0.387,0.526,-45.72,-37.96,-1379.2,-4289.84,16415.12,-1219.1,-5234.52,-614.54
220,0.793,0.05,0.0,0.421,0.0,-46.91,-39.36,-1539.2,-5133.84,16883.12,-2596.1,-4195.52,-2038.54
240,0.804,0.064,0.0,0.427,0.526,-47.51,-40.72,-2359.2,-6337.84,18463.12,-4083.1,-4122.52,-2018.54
259,0.746,0.077,0.0,0.512,0.58,-48.21,-42.17,-1095.2,-6665.84,18339.12,-4863.1,-3522.52,-1107.54
279,0.74,0.064,0.0,0.455,0.0,-48.94,-44.16,248.8,-6897.84,16223.12,-5731.1,-1251.52,1379.46
299,0.702,0.077,0.0,0.467,0.741,-48.92,-46.18,136.8,-8245.84,16603.12,-6002.1,2302.48,3852.46
319,0.624,0.084,0.0,0.433,0.31,-48.23,-47.91,908.8,-8877.84,17327.12,-5585.1,6887.48,4900.46
339,0.559,0.064,0.0,0.427,0.418,-46.98,-49.3,600.8,-9473.84,18099.12,-4430.1,10181.48,4683.46
358,0.631,0.0,0.0,0.444,0.31,-45.47,-50.0,784.8,-8997.84,18959.12,-1861.1,12628.48,5751.46
379,0.681,0.084,0.0,0.433,0.526,-43.65,-50.46,-419.2,-9089.84,18267.12,513.9,14675.48,7058.46
399,1.0,0.168,0.0,0.712,0.418,-41.73,-50.42,-879.2,-8293.84,18983.12,2080.9,15874.48,8868.46
418,1.0,0.112,0.0,0.809,0.31,-39.81,-50.02,-927.2,-7837.84,20335.12,2744.9,16239.48,10788.46
439,1.0,0.098,0.0,0.678,0.903,-38.27,-49.85,-531.2,-7017.84,20007.12,745.9,15315.48,12449.46
459,1.0,0.071,0.0,1.0,0.849,-36.58,-49.76,-1043.2,-8041.84,19599.12,1741.9,16205.48,13736.46
479,1.0,0.077,0.0,1.0,0.526,-34.52,-48.96,-939.2,-8305.84,20011.12,6542.9,19286.48,14480.46
499,1.0,0.14,0.0,1.0,0.849,-31.81,-47.73,-931.2,-9825.84,21331.12,10026.9,23396.48,13331.46
519,1.0,0.182,0.0,0.895,1.0,-28.85,-45.78,-1563.2,-9017.84,21947.12,14225.9,25800.48,11897.46
540,1.0,0.161,0.0,1.0,1.0,-25.52,-42.98,-3267.2,-6837.84,22735.12,18215.9,28500.48,10233.46
559,0.782,0.133,0.0,1.0,1.0,-22.06,-39.93,-3883.2,-4565.84,22303.12,18853.9,31083.48,8628.46
579,0.82,0.133,0.0,1.0,0.687,-18.6,-36.86,-4947.2,-2917.84,22823.12,17796.9,31591.48,7920.46
599,0.751,0.154,0.081,1.0,0.633,-14.83,-34.22,-7503.2,-1585.84,24995.12,13213.9,31591.48,7163.46
619,0.757,0.084,0.081,0.878,1.0,-10.92,-32.22,-9603.2,-625.84,25355.12,8423.9,31591.48,8862.46
639,0.651,0.147,0.022,0.895,0.849,-7.26,-31.02,-11515.2,-2125.84,24675.12,5619.9,29087.48,11735.46
658,0.719,0.182,0.081,0.878,0.957,-3.92,-29.58,-12843.2,-633.84,23707.12,6181.9,26799.48,14744.46
678,0.722,0.175,0.0,0.992,1.0,-1.18,-28.35,-11835.2,-1625.84,23323.12,6601.9,25227.48,16222.46
699,0.788,0.147,0.081,1.0,1.0,1.48,-27.11,-13103.2,-1849.84,22859.12,7604.9,24114.48,15349.46
719,0.851,0.182,0.0,1.0,1.0,4.42,-25.27,-14263.2,1110.16,22531.12,8235.9,25458.48,15333.46
738,0.913,0.161,0.051,1.0,0.957,7.29,-23.34,-14847.2,2654.16,21543.12,7240.9,25140.48,16891.46
759,0.817,0.112,0.0,0.821,0.58,9.94,-22.15,-15927.2,858.16,21931.12,5454.9,23117.48,18426.46
779,0.853,0.064,0.0,1.0,1.0,12.35,-21.51,-17331.2,-2805.84,21551.12,7497.9,20594.48,17706.46
799,0.94,0.105,0.0,0.866,0.741,14.22,-19.38,-14091.2,954.16,19603.12,13399.9,22468.48,13219.46
819,0.919,0.064,0.0,0.889,0.903,17.19,-16.75,-16775.2,5046.16,20279.12,9992.9,26162.48,8955.46
839,0.96,0.064,0.0,0.889,0.849,20.93,-15.23,-21099.2,2726.16,20131.12,7377.9,25835.48,10826.46
858,0.958,0.05,0.0,0.878,0.903,24.25,-13.15,-21367.2,3610.16,18871.12,10200.9,22808.48,13426.46
879,0.955,0.015,0.0,0.889,0.202,27.28,-10.79,-21435.2,4730.16,16927.12,10124.9,19776.48,13352.46
899,0.904,0.043,0.0,0.889,0.364,30.08,-8.46,-22591.2,6054.16,16871.12,7469.9,17920.48,9872.46
919,1.0,0.043,0.0,0.929,0.687,32.59,-6.37,-22711.2,6782.16,16007.12,4031.9,15899.48,6783.46
939,0.962,0.057,0.0,0.918,0.31,35.02,-4.27,-23607.2,6590.16,15011.12,4193.9,13770.48,7339.46
959,0.889,0.015,0.0,0.946,0.741,37.43,-1.8,-23511.2,6638.16,13771.12,5550.9,12885.48,7984.46
979,0.957,0.001,0.0,0.975,0.903,39.62,1.18,-24619.2,8142.16,13895.12,5904.9,12365.48,7816.46
999,0.886,0.015,0.0,0.946,0.418,41.72,3.88,-27563.2,8550.16,14275.12,4497.9,10826.48,7158.46
1019,0.911,0.064,0.0,0.923,0.903,43.21,6.75,-29019.2,8906.16,13063.12,3191.9,5525.48,6991.46
1039,0.944,0.001,0.0,0.895,0.633,44.11,10.03,-24547.2,7970.16,10883.12,2713.9,1877.48,5854.46
1059,0.978,0.05,0.0,0.883,0.418,45.09,12.76,-22691.2,7670.16,11307.12,2024.9,4194.48,2595.46
1079,1.0,0.0,0.0,0.889,0.903,46.38,15.15,-26503.2,9078.16,13019.12,1834.9,6737.48,1432.46
1099,0.942,0.015,0.0,0.866,0.795,47.52,17.54,-29239.2,8978.16,13031.12,2723.9,4218.48,3108.46
1119,1.0,0.0,0.0,0.878,0.795,48.17,20.7,-28867.2,9234.16,11535.12,4390.9,555.48,4652.46
1139,0.955,0.0,0.0,0.821,0.418,48.71,24.47,-25639.2,8638.16,10063.12,5511.9,101.48,3786.46
1159,1.0,0.001,0.0,0.752,0.0,49.23,27.73,-26763.2,10602.16,11167.12,3988.9,2367.48,806.46
1179,1.0,0.029,0.0,0.758,0.0,49.76,30.09,-28831.2,10402.16,12399.12,2142.9,1731.48,-697.54
1199,1.0,0.0,0.0,0.895,0.903,50.02,32.16,-29415.2,9426.16,12279.12,2031.9,-1407.52,171.46
1219,1.0,0.015,0.0,0.889,0.526,50.0,34.26,-28015.2,8338.16,11691.12,3524.9,-4102.52,983.46
1239,1.0,0.029,0.0,0.809,0.903,49.77,36.6,-27199.2,10250.16,12123.12,3479.9,-2889.52,-335.54
1259,1.0,0.0,0.0,0.883,0.633,49.68,38.21,-27895.2,9662.16,12919.12,1947.9,-2579.52,-1081.54
1279,1.0,0.0,0.0,0.809,0.795,49.57,39.4,-28435.2,8654.16,13135.12,2028.9,-3896.52,-816.54
1299,0.889,0.0,0.0,0.906,1.0,49.23,40.43,-27039.2,7870.16,13395.12,3701.9,-5194.52,-160.54
1319,0.855,0.029,0.0,0.923,0.58,48.87,41.82,-26263.2,9478.16,13843.12,3968.9,-3207.52,-332.54
1339,0.998,0.0,0.0,0.895,1.0,48.83,42.69,-27835.2,9446.16,15099.12,3068.9,-1272.52,-692.54
1359,0.88,0.0,0.0,0.9,0.364,48.71,43.29,-29231.2,9394.16,15795.12,2572.9,-2319.52,-499.54
1379,0.957,0.0,0.0,0.878,0.957,48.5,43.8,-28299.2,8286.16,14631.12,2752.9,-4147.52,-454.54
1399,0.88,0.0,0.0,0.912,0.526,48.21,44.64,-25659.2,9266.16,14027.12,2301.9,-2779.52,-1769.54
1419,0.988,0.0,0.0,0.9,0.849,48.33,44.83,-27691.2,9010.16,14859.12,-17.1,-1129.52,-2299.54
1439,0.826,0.0,0.0,0.889,0.903,48.19,44.71,-28583.2,7910.16,15751.12,1374.9,-3344.52,-1125.54
1460,0.909,0.0,0.0,0.923,0.04,47.87,44.79,-27343.2,8142.16,15363.12,1878.9,-4160.52,-262.54
1479,0.84,0.043,0.0,0.923,0.256,47.73,44.74,-26479.2,7954.16,15267.12,1386.9,-2670.52,-802.54
1499,1.0,0.0,0.0,0.992,0.741,47.63,44.54,-26831.2,8222.16,15471.12,80.9,-2364.52,-1283.54
1519,1.0,0.0,0.0,1.0,0.526,47.47,44.47,-28115.2,8490.16,15419.12,385.9,-3686.52,-569.54
1539,0.949,0.0,0.0,0.992,0.687,47.37,44.46,-27139.2,8930.16,15739.12,436.9,-2214.52,289.46
1559,0.928,0.0,0.0,1.0,0.633,47.36,44.24,-27303.2,8418.16,15851.12,172.9,-1919.52,421.46
1579,1.0,0.0,0.0,0.969,0.58,47.44,43.98,-26751.2,8378.16,15555.12,-398.1,-1343.52,-258.54
1599,1.0,0.0,0.0,0.992,0.903,47.62,43.82,-27211.2,8726.16,15595.12,-383.1,-690.52,-584.54
1619,1.0,0.0,0.0,0.986,0.31,47.74,43.73,-27607.2,9038.16,15531.12,-582.1,-1326.52,-0.54
1639,1.0,0.0,0.0,0.9,0.526,47.83,43.61,-27007.2,8570.16,14887.12,-722.1,-1923.52,391.46
1660,0.909,0.0,0.0,0.992,0.633,47.96,43.53,-26399.2,8918.16,15351.12,-477.1,-592.52,98.46
1679,0.911,0.0,0.0,0.935,0.849,48.23,43.39,-26895.2,8762.16,15711.12,-103.1,200.48,-2.54
1699,0.909,0.0,0.0,0.98,0.741,48.53,43.35,-27283.2,9202.16,15771.12,-107.1,527.48,-178.54
1719,0.986,0.0,0.0,0.889,0.633,48.81,43.22,-27951.2,9038.16,15691.12,-539.1,-227.52,93.46
1738,0.909,0.0,0.0,0.992,0.202,48.92,43.15,-27603.2,8906.16,15327.12,-398.1,-1416.52,393.46
1759,0.915,0.0,0.0,1.0,0.687,49.05,43.1,-26395.2,8870.16,15031.12,-521.1,-830.52,164.46
1779,0.909,0.0,0.0,0.963,0.795,49.25,42.92,-26979.2,8842.16,15771.12,-330.1,-53.52,247.46
1799,0.882,0.0,0.0,1.0,0.849,49.39,42.79,-27543.2,8962.16,16251.12,285.9,-360.52,886.46
1819,0.971,0.029,0.0,0.98,0.903,49.5,42.83,-27375.2,9350.16,16035.12,579.9,-420.52,1066.46
1839,0.897,0.001,0.0,0.969,0.364,49.64,42.81,-27063.2,9294.16,15807.12,47.9,-239.52,658.46
1859,0.928,0.0,0.0,1.0,0.903,49.8,42.65,-26963.2,9050.16,15751.12,-517.1,-116.52,162.46
1879,0.986,0.0,0.0,0.952,0.903,49.99,42.55,-27167.2,9294.16,15799.12,-528.1,68.48,204.46
1899,0.839,0.0,0.0,0.957,0.795,50.17,42.46,-27335.2,9070.16,15727.12,-108.1,-236.52,713.46
1919,0.897,0.015,0.0,1.0,0.849,50.3,42.44,-26927.2,8958.16,15527.12,309.9,-511.52,963.46
1938,0.833,0.0,0.0,0.935,0.526,50.45,42.5,-26791.2,9470.16,15623.12,147.9,150.48,490.46
1959,0.793,0.0,0.0,1.0,0.364,50.63,42.43,-27275.2,9350.16,15859.12,-228.1,148.48,321.46
1979,0.806,0.0,0.0,0.923,0.633,50.74,42.38,-27043.2,9270.16,15667.12,-207.1,-304.52,465.46
1999,0.737,0.0,0.0,0.992,0.0,50.82,42.26,-27043.2,9314.16,16103.12,-144.1,-178.52,515.46
2019,0.9,0.0,0.0,0.969,0.202,50.9,42.06,-27211.2,9046.16,16083.12,-276.1,-395.52,500.46
2039,0.853,0.0,0.0,0.992,0.418,50.99,42.08,-26687.2,9478.16,15859.12,181.9,111.48,201.46
2059,1.0,0.0,0.0,0.895,0.795,51.15,41.94,-27179.2,9378.16,16171.12,-261.1,402.48,105.46
2079,1.0,0.0,0.0,0.98,0.526,51.26,41.99,-26927.2,9566.16,15763.12,144.9,69.48,241.46
2099,0.94,0.0,0.0,0.952,0.148,51.4,41.97,-26739.2,9450.16,15699.12,-131.1,317.48,84.46
2119,1.0,0.0,0.0,0.923,0.0,51.57,41.85,-27063.2,9146.16,15755.12,-205.1,209.48,160.46
2139,0.94,0.0,0.0,0.957,0.526,51.68,41.88,-26723.2,9378.16,15615.12,229.9,91.48,251.46
2159,0.913,0.0,0.0,0.969,0.0,51.77,41.87,-26911.2,9450.16,15639.12,-77.1,-65.52,209.46
2179,0.904,0.0,0.0,0.923,0.58,51.85,41.81,-26519.2,9186.16,15607.12,6.9,-22.52,61.46
2199,0.971,0.0,0.0,0.946,0.687,51.97,41.76,-26887.2,9246.16,15775.12,171.9,151.48,66.46
2219,0.948,0.0,0.0,0.935,0.202,52.05,41.81,-26771.2,9454.16,15723.12,514.9,36.48,171.46
2238,0.819,0.0,0.0,0.946,0.687,52.18,41.81,-26679.2,9406.16,15555.12,17.9,290.48,-148.54
2259,0.986,0.0,0.0,0.929,0.795,52.34,41.75,-26619.2,9238.16,15479.12,-120.1,485.48,-292.54
2279,0.986,0.0,0.0,0.923,0.903,52.52,41.58,-27055.2,9122.16,15775.12,-308.1,474.48,-202.54
2299,1.0,0.001,0.0,0.952,0.687,52.62,41.51,-27423.2,9362.16,15923.12,77.9,-9.52,69.46
2319,0.995,0.0,0.0,0.957,0.687,52.61,41.47,-26791.2,9142.16,15691.12,426.9,-644.52,283.46
2339,1.0,0.0,0.0,0.957,0.633,52.63,41.43,-26935.2,9478.16,15795.12,48.9,-274.52,100.46
2359,1.0,0.0,0.0,0.895,0.0,52.68,41.3,-26555.2,9106.16,15611.12,-239.1,-112.52,-130.54
2379,0.998,0.0,0.0,0.9,0.741,52.76,41.13,-27067.2,9334.16,15787.12,-641.1,-15.52,-224.54
2400,1.0,0.0,0.0,0.952,0.58,52.81,41.02,-26923.2,9046.16,15723.12,177.9,-386.52,186.46
2419,0.993,0.0,0.0,0.895,0.31,52.83,40.95,-27055.2,9174.16,15727.12,175.9,-521.52,327.46
2439,0.886,0.0,0.0,0.923,0.58,52.85,40.95,-26783.2,9302.16,15475.12,174.9,-489.52,169.46
2459,1.0,0.015,0.0,0.975,0.202,52.89,40.85,-26875.2,9350.16,15743.12,-240.1,-214.52,21.46
2479,0.986,0.0,0.0,0.923,0.903,52.9,40.7,-26823.2,9186.16,15687.12,-385.1,-422.52,12.46
2499,1.0,0.015,0.0,0.929,1.0,52.97,40.6,-26663.2,9362.16,15651.12,-445.1,70.48,-283.54
2519,0.997,0.0,0.0,0.957,0.795,53.0,40.28,-27011.2,8730.16,16203.12,-208.1,-267.52,-52.54
2540,1.0,0.0,0.0,0.895,0.04,52.98,40.26,-26907.2,9310.16,16051.12,636.9,-400.52,196.46
2559,0.911,0.0,0.0,0.946,0.957,52.94,40.21,-26967.2,9554.16,16135.12,170.9,-362.52,190.46
2580,0.962,0.0,0.0,0.929,1.0,52.99,40.02,-26587.2,8970.16,15863.12,-130.1,-23.52,-67.54
2599,0.991,0.0,0.0,0.946,0.526,53.1,39.87,-26835.2,9246.16,15891.12,-284.1,376.48,-101.54
2619,0.984,0.0,0.0,0.895,0.633,53.21,39.73,-27315.2,9314.16,15971.12,-305.1,167.48,-1.54
2640,0.997,0.0,0.0,0.9,0.364,53.21,39.57,-27107.2,9254.16,16071.12,-293.1,-367.52,193.46
2659,0.877,0.0,0.0,0.963,0.364,53.19,39.5,-26679.2,9266.16,15715.12,-84.1,-448.52,277.46
2680,0.897,0.0,0.0,0.895,0.0,53.21,39.42,-26531.2,9318.16,15815.12,-116.1,-33.52,49.46
2699,0.795,0.0,0.0,0.9,0.31,53.27,39.26,-26919.2,9290.16,16039.12,-344.1,176.48,98.46
2719,0.795,0.0,0.0,0.912,0.418,53.21,39.08,-26971.2,9374.16,16439.12,-272.1,-271.52,329.46
2739,0.791,0.0,0.0,0.889,0.202,53.11,38.96,-27207.2,9546.16,16107.12,-456.1,-949.52,603.46
2759,0.848,0.0,0.0,0.895,0.58,52.97,38.89,-26895.2,9306.16,15719.12,-273.1,-1464.52,499.46
2779,0.782,0.0,0.0,0.952,0.741,52.79,38.77,-26087.2,9182.16,15851.12,-192.1,-1219.52,176.46
2799,0.928,0.0,0.0,0.94,0.633,52.67,38.69,-26391.2,9374.16,16211.12,95.9,-651.52,156.46
2819,0.797,0.0,0.0,0.935,0.633,52.56,38.63,-26651.2,9422.16,16111.12,53.9,-873.52,521.46
2839,0.804,0.0,0.0,0.912,0.633,52.43,38.52,-26807.2,9422.16,16227.12,-104.1,-1080.52,577.46
2859,0.893,0.064,0.0,0.952,0.364,52.28,38.44,-26379.2,9322.16,16043.12,30.9,-1138.52,503.46
2880,1.0,0.0,0.0,0.895,0.849,52.14,38.35,-26043.2,9278.16,16155.12,87.9,-751.52,413.46
2899,0.991,0.0,0.0,0.878,0.687,52.09,38.28,-26175.2,9406.16,16351.12,281.9,-167.52,289.46
2919,1.0,0.0,0.0,0.895,0.741,52.07,38.2,-27003.2,9758.16,16683.12,-9.1,-63.52,189.46
2939,1.0,0.0,0.0,0.98,0.31,51.98,38.08,-26963.2,9550.16,16383.12,-263.1,-833.52,201.46
2959,1.0,0.0,0.0,0.895,0.795,51.89,37.92,-26531.2,9206.16,16455.12,88.9,-757.52,265.46
2979,1.0,0.0,0.0,0.878,1.0,51.86,37.89,-26335.2,9698.16,16639.12,337.9,186.48,57.46
