timestamp,flex_1,flex_2,flex_3,flex_4,flex_5,kalman_pitch,kalman_roll,acc_x,acc_y,acc_z,gyro_x,gyro_y,gyro_z
0,1.0,0.0,0.466,0.145,0.766,34.35,94.62,1314.0,1496.08,15227.04,1860.56,408.82,703.82
19,1.0,0.0,0.341,0.172,0.0,9.86,60.43,1330.0,1664.08,15383.04,2515.56,1323.82,604.82
39,1.0,0.0,0.716,0.172,0.766,-4.93,39.96,1742.0,1856.08,15255.04,2256.56,3503.82,571.82
59,1.0,0.0,0.591,0.145,1.0,-13.69,26.56,866.0,1344.08,16607.04,1945.56,4807.82,508.82
79,1.0,0.0,0.528,0.136,0.298,-19.5,16.95,-454.0,1224.08,17127.04,1331.56,3674.82,611.82
99,1.0,0.0,0.528,0.136,0.532,-24.51,9.86,-54.0,1680.08,17127.04,1078.56,731.82,991.82
119,1.0,0.0,0.591,0.181,0.532,-28.79,4.57,218.0,1908.08,17531.04,1607.56,-1349.18,1239.82
139,1.0,0.0,0.528,0.243,0.0,-32.75,0.08,1518.0,1876.08,17075.04,1725.56,-1507.18,1544.82
159,1.0,0.0,0.716,1.0,0.415,-35.63,-3.82,1302.0,1232.08,17779.04,1576.56,-129.18,2015.82
179,1.0,0.0,0.528,1.0,1.0,-37.52,-7.85,646.0,-91.92,18183.04,-262.44,1476.82,2885.82
200,1.0,0.0,0.0,1.0,0.415,-38.67,-11.72,306.0,-1311.92,19547.04,-2235.44,2011.82,4416.82
220,0.638,0.0,0.528,1.0,0.298,-39.19,-15.3,246.0,-2343.92,20759.04,-3000.44,3705.82,5837.82
240,1.0,0.0,0.716,1.0,0.649,-39.38,-18.8,-22.0,-2119.92,20539.04,-5126.44,5708.82,6312.82
260,0.711,0.0,0.466,1.0,0.532,-39.13,-22.85,450.0,-3219.92,20039.04,-8834.44,8971.82,8535.82
280,1.0,0.0,0.528,0.855,0.415,-38.29,-26.81,-754.0,-3283.92,21195.04,-11997.44,10980.82,11088.82
300,1.0,0.0,1.0,0.899,1.0,-37.29,-30.99,-2094.0,-4455.92,21855.04,-14806.44,9950.82,14113.82
320,1.0,0.0,0.653,1.0,0.766,-36.61,-35.97,-3478.0,-5715.92,20199.04,-19179.44,6919.82,17559.82
340,1.0,0.0,0.653,1.0,1.0,-35.51,-41.27,-2766.0,-9375.92,18403.04,-18510.44,9864.82,20993.82
360,0.0,0.0,0.778,1.0,1.0,-33.89,-44.77,-3498.0,-11615.92,21959.04,-10528.44,11440.82,23576.82
380,0.106,0.0,1.0,1.0,1.0,-32.27,-46.59,-3018.0,-8335.92,22179.04,-2989.44,13701.82,22904.82
400,0.0,0.0,0.903,1.0,1.0,-30.82,-49.51,-3722.0,-9387.92,20467.04,-9002.44,12711.82,21697.82
420,0.0,0.0,1.0,1.0,0.766,-29.24,-52.77,-3594.0,-14063.92,21543.04,-10736.44,12609.82,23437.82
440,0.0,0.0,1.0,0.997,1.0,-27.7,-54.05,-3910.0,-13211.92,23315.04,-149.44,12548.82,26255.82
460,0.0,0.0,0.778,1.0,1.0,-26.29,-54.41,-3842.0,-12151.92,22663.04,5532.56,12830.82,27190.82
480,0.0,0.0,0.903,1.0,1.0,-24.75,-54.99,-4518.0,-10755.92,21615.04,3922.56,14219.82,28590.82
500,0.313,0.0,1.0,1.0,1.0,-22.85,-55.94,-6342.0,-12067.92,21795.04,1745.56,15345.82,28835.82
520,0.859,0.0,0.841,0.908,1.0,-21.01,-56.99,-7606.0,-11903.92,19899.04,2192.56,14781.82,29286.82
540,1.0,0.0,0.716,1.0,0.532,-19.12,-57.73,-8190.0,-12963.92,22579.04,2296.56,14748.82,31103.82
560,0.579,0.0,0.528,1.0,1.0,-17.11,-57.03,-6986.0,-10583.92,21375.04,11631.56,17937.82,30598.82
579,0.682,0.0,0.591,1.0,1.0,-14.76,-56.4,-8802.0,-11015.92,18999.04,13652.56,19521.82,30279.82
600,1.0,0.0,0.778,1.0,1.0,-12.24,-55.24,-10146.0,-8595.92,19923.04,15322.56,20426.82,29759.82
620,0.711,0.0,0.653,1.0,1.0,-9.74,-53.33,-10882.0,-7667.92,20091.04,20110.56,20529.82,28494.82
640,0.874,0.0,0.778,1.0,1.0,-7.11,-50.67,-11290.0,-3671.92,19311.04,23253.56,22293.82,27000.82
660,1.0,0.0,0.716,1.0,1.0,-3.96,-48.89,-13170.0,-2439.92,17187.04,19184.56,24070.82,25276.82
680,1.0,0.0,0.966,1.0,1.0,-0.62,-47.5,-14990.0,-2275.92,17471.04,16542.56,23522.82,22831.82
700,0.8,0.0,0.653,1.0,1.0,2.8,-45.33,-15258.0,-927.92,17091.04,21215.56,24459.82,20791.82
720,1.0,0.0,0.591,1.0,1.0,6.45,-42.61,-16314.0,2220.08,16531.04,21154.56,23944.82,19474.82
740,1.0,0.0,1.0,1.0,0.883,10.7,-40.47,-17698.0,4020.08,14535.04,16191.56,23474.82,18458.82
760,1.0,0.0,0.716,0.935,1.0,15.28,-39.49,-19022.0,3528.08,13103.04,12873.56,22917.82,16557.82
779,1.0,0.0,0.778,1.0,1.0,20.13,-38.03,-19754.0,4604.08,12219.04,14656.56,22229.82,14641.82
800,1.0,0.0,0.716,1.0,1.0,24.81,-35.59,-20382.0,5788.08,12315.04,16026.56,20980.82,12664.82
819,1.0,0.0,0.653,1.0,1.0,29.32,-31.01,-21398.0,8892.08,11523.04,12930.56,19604.82,12106.82
840,1.0,0.0,0.653,1.0,1.0,33.89,-30.53,-22542.0,5980.08,10275.04,8059.56,16940.82,11568.82
860,1.0,0.0,0.716,1.0,1.0,38.48,-27.28,-22998.0,7232.08,9659.04,9958.56,16802.82,10005.82
880,1.0,0.0,0.841,1.0,1.0,42.4,-20.55,-24538.0,8744.08,8555.04,9890.56,14541.82,8486.82
900,1.0,0.0,1.0,1.0,0.766,44.98,-15.01,-26418.0,12276.08,10123.04,9095.56,11455.82,8472.82
919,1.0,0.0,0.653,1.0,1.0,48.19,-7.42,-24926.0,8260.08,7659.04,7383.56,11032.82,8416.82
939,1.0,0.0,0.778,1.0,1.0,50.98,0.18,-25142.0,8824.08,6835.04,5923.56,10614.82,5265.82
959,1.0,0.0,0.903,0.997,1.0,53.1,5.89,-26034.0,10388.08,7503.04,3440.56,8195.82,4840.82
979,1.0,0.0,0.528,1.0,1.0,55.15,12.06,-26250.0,9264.08,7351.04,4477.56,6740.82,4424.82
1000,1.0,0.0,0.528,0.988,0.532,56.62,16.97,-27038.0,11284.08,8227.04,5243.56,5534.82,4455.82
1019,0.977,0.0,0.591,1.0,1.0,57.83,21.67,-26478.0,10788.08,7551.04,1354.56,3900.82,4774.82
1039,0.859,0.0,0.716,0.944,1.0,59.06,26.96,-27442.0,10500.08,6767.04,2335.56,3963.82,4193.82
1059,0.918,0.0,0.716,0.988,1.0,60.2,31.96,-27686.0,10948.08,6819.04,2720.56,4109.82,3331.82
1079,0.933,0.0,0.778,0.944,0.298,61.26,34.66,-28002.0,11832.08,8227.04,-5004.44,4509.82,2655.82
1099,0.918,0.0,0.716,0.935,1.0,62.16,39.88,-28294.0,10944.08,6199.04,3544.56,3139.82,1648.82
1119,0.962,0.0,0.653,0.935,1.0,62.55,44.17,-28106.0,11992.08,6575.04,1580.56,1001.82,1993.82
1140,0.903,0.0,0.653,0.935,0.532,62.91,48.18,-27198.0,11724.08,5547.04,-3055.44,1596.82,1510.82
1159,0.933,0.0,0.591,0.961,1.0,63.68,52.4,-28482.0,11144.08,6659.04,2231.56,2632.82,544.82
1179,0.903,0.0,0.716,0.953,1.0,64.18,55.69,-28390.0,11364.08,7307.04,-78.44,998.82,347.82
1199,0.918,0.0,0.466,0.97,1.0,64.63,59.06,-28614.0,11460.08,7175.04,933.56,882.82,331.82
1219,0.874,0.0,0.841,0.988,0.532,64.99,62.23,-28578.0,11636.08,7215.04,759.56,544.82,271.82
1239,0.859,0.0,0.716,0.944,1.0,65.35,65.16,-28466.0,11108.08,7351.04,-20.44,-19.18,63.82
1259,0.859,0.0,0.716,0.944,0.883,65.72,67.84,-28582.0,11240.08,7643.04,506.56,223.82,-102.18
1279,0.874,0.0,0.778,0.926,1.0,66.03,70.28,-28354.0,11352.08,7791.04,344.56,27.82,-149.18
1299,0.859,0.0,0.653,0.935,0.766,66.39,72.5,-28298.0,11088.08,7915.04,-60.44,120.82,-203.18
1319,0.815,0.0,0.716,0.917,0.883,66.75,74.67,-28306.0,10844.08,7827.04,-474.44,-82.18,-216.18
1339,0.874,0.0,0.528,0.926,0.415,67.12,76.66,-28354.0,10576.08,7979.04,-460.44,-290.18,-39.18
1359,0.77,0.0,0.153,0.926,1.0,67.48,78.61,-28430.0,10608.08,8011.04,-4.44,-325.18,47.82
1379,0.815,0.0,0.716,0.908,1.0,67.75,80.57,-28342.0,10736.08,7987.04,624.56,-640.18,301.82
1399,0.874,0.0,0.528,0.944,1.0,68.01,82.33,-28314.0,11048.08,8055.04,367.56,-309.18,202.82
1419,0.844,0.0,0.591,0.926,1.0,68.28,83.96,-28334.0,10856.08,7959.04,-552.44,-409.18,-13.18
1439,0.815,0.0,0.653,0.935,0.766,68.6,85.54,-28442.0,10792.08,8019.04,-152.44,-137.18,-23.18
1459,0.844,0.0,0.841,0.944,0.883,68.9,86.99,-28546.0,10816.08,8207.04,368.56,-187.18,-6.18
1479,0.844,0.0,0.528,0.899,1.0,69.19,88.48,-28498.0,10820.08,8123.04,775.56,-236.18,57.82
1499,0.933,0.0,1.0,0.917,0.766,69.44,89.85,-28430.0,10948.08,8155.04,565.56,-172.18,22.82
1519,0.859,0.0,0.466,0.944,1.0,69.71,91.28,-28330.0,10884.08,7859.04,19.56,-36.18,-246.18
1539,0.874,0.0,0.028,0.926,1.0,70.04,92.62,-28398.0,10768.08,7939.04,116.56,225.82,-235.18
1559,0.844,0.0,0.653,0.935,0.883,70.38,93.87,-28518.0,10536.08,8071.04,439.56,70.82,-33.18
1579,0.874,0.0,0.716,0.926,1.0,70.63,95.27,-28434.0,10844.08,7803.04,820.56,-4.18,82.82
1599,0.77,0.0,0.403,0.917,1.0,70.83,96.46,-28542.0,10916.08,7851.04,153.56,-231.18,61.82
1619,0.859,0.0,0.716,0.917,1.0,71.03,97.8,-28306.0,10924.08,7547.04,119.56,-102.18,-36.18
1639,0.815,0.0,0.653,0.899,1.0,71.25,98.87,-28486.0,10848.08,7883.04,207.56,-62.18,-22.18
1660,0.756,0.0,0.716,0.89,1.0,71.48,99.66,-28630.0,10828.08,8199.04,239.56,-108.18,-9.18
1680,0.726,0.0,0.653,0.917,0.532,71.69,100.54,-28590.0,10720.08,8051.04,292.56,-233.18,102.82
1699,0.77,0.0,0.716,0.917,1.0,71.86,101.5,-28630.0,10808.08,7811.04,107.56,-359.18,217.82
1719,0.8,0.0,0.716,0.89,1.0,72.05,102.49,-28438.0,10748.08,7683.04,1.56,-144.18,42.82
1739,0.711,0.0,0.778,0.917,1.0,72.26,103.19,-28466.0,10708.08,7991.04,-157.44,-130.18,67.82
1759,0.741,0.0,0.403,0.953,1.0,72.48,103.72,-28590.0,10652.08,8263.04,258.56,-74.18,169.82
1779,0.741,0.0,0.716,0.899,0.415,72.65,104.38,-28518.0,10836.08,8039.04,378.56,-185.18,281.82
1799,0.903,0.0,0.778,0.89,1.0,72.81,104.94,-28654.0,10764.08,8059.04,19.56,-299.18,295.82
1819,0.726,0.0,0.778,0.882,0.883,72.96,105.63,-28266.0,10708.08,7883.04,266.56,-234.18,318.82
1840,0.785,0.0,0.841,0.926,0.883,73.09,106.18,-28478.0,10884.08,7991.04,209.56,-154.18,248.82
1859,0.741,0.0,0.591,0.917,0.766,73.26,106.65,-28370.0,10848.08,8031.04,73.56,40.82,172.82
1880,0.785,0.0,0.591,0.899,0.883,73.42,107.05,-28494.0,10808.08,8115.04,185.56,-42.18,171.82
1899,0.711,0.0,0.778,0.935,1.0,73.54,107.43,-28430.0,10848.08,8087.04,161.56,-177.18,286.82
1920,0.741,0.0,0.716,0.899,1.0,73.65,108.05,-28310.0,10780.08,7643.04,-137.44,-206.18,411.82
1939,0.726,0.0,0.341,0.899,1.0,73.85,108.57,-28314.0,10500.08,7855.04,155.56,46.82,371.82
1959,0.741,0.0,0.778,0.953,0.883,74.0,108.82,-28422.0,10876.08,8147.04,236.56,174.82,283.82
1979,0.756,0.0,0.841,0.917,1.0,74.15,108.98,-28546.0,10712.08,8183.04,-135.44,-31.18,392.82
1999,0.711,0.0,0.716,1.0,1.0,74.29,109.12,-28526.0,10824.08,8187.04,-46.44,82.82,322.82
2020,0.711,0.0,0.716,0.944,0.298,74.37,109.31,-28506.0,11080.08,8015.04,-300.44,55.82,243.82
2039,0.682,0.0,0.278,0.935,0.298,74.46,109.66,-28458.0,10836.08,7823.04,-23.44,-139.18,286.82
2060,0.711,0.0,0.591,0.89,0.649,74.51,110.12,-28390.0,11084.08,7687.04,453.56,-30.18,221.82
2079,0.711,0.0,0.403,0.917,0.532,74.54,110.41,-28318.0,11176.08,7791.04,-16.44,-2.18,41.82
2099,0.756,0.0,0.528,0.961,1.0,74.62,110.61,-28430.0,10936.08,7927.04,66.56,-25.18,12.82
2119,0.711,0.0,0.653,0.882,0.883,74.7,110.71,-28474.0,10748.08,8095.04,144.56,-233.18,156.82
2139,0.756,0.0,1.0,0.997,1.0,74.74,110.78,-28422.0,10892.08,8151.04,360.56,-337.18,311.82
2160,0.741,0.0,0.653,0.908,0.415,74.75,111.03,-28246.0,10924.08,7779.04,38.56,-328.18,270.82
2180,0.697,0.0,0.278,0.89,0.883,74.8,111.11,-28282.0,11000.08,7923.04,-261.44,-59.18,62.82
2199,0.623,0.0,0.653,0.961,1.0,74.88,111.13,-28374.0,10780.08,8055.04,-60.44,-94.18,35.82
2220,0.711,0.0,0.716,0.935,0.298,74.91,111.11,-28470.0,10996.08,8163.04,302.56,-238.18,114.82
2239,0.682,0.0,0.403,0.97,0.883,74.89,111.0,-28438.0,11216.08,8195.04,19.56,-317.18,75.82
2259,0.652,0.0,0.591,0.917,0.298,74.92,110.97,-28310.0,10908.08,8035.04,-210.44,-227.18,115.82
2279,0.741,0.0,0.653,0.926,1.0,75.0,110.92,-28358.0,10796.08,8147.04,172.56,-59.18,87.82
2299,0.667,0.0,0.716,0.944,0.766,75.04,110.73,-28482.0,11096.08,8347.04,289.56,12.82,70.82
2320,0.682,0.0,0.591,0.926,0.415,75.08,110.55,-28578.0,10960.08,8311.04,255.56,-192.18,96.82
2340,0.697,0.0,0.716,0.944,1.0,75.1,110.68,-28454.0,11052.08,7855.04,425.56,-118.18,105.82
2360,0.711,0.0,0.653,0.944,0.883,75.13,110.75,-28406.0,10996.08,7899.04,192.56,-84.18,113.82
2380,0.711,0.0,0.278,0.935,0.766,75.16,110.82,-28306.0,10944.08,7879.04,250.56,-51.18,112.82
2399,0.638,0.0,0.841,0.961,0.883,75.22,110.65,-28546.0,10868.08,8183.04,1.56,-106.18,55.82
2419,0.682,0.0,0.591,0.953,1.0,75.26,110.58,-28402.0,10780.08,8087.04,250.56,-221.18,164.82
2439,0.667,0.0,0.653,0.935,0.883,75.28,110.46,-28370.0,10868.08,8135.04,231.56,-227.18,218.82
2460,0.682,0.0,0.591,0.908,0.766,75.3,110.29,-28402.0,10820.08,8159.04,52.56,-311.18,209.82
2479,0.697,0.0,0.653,0.89,1.0,75.32,110.06,-28458.0,10960.08,8211.04,-25.44,-230.18,251.82
2499,0.638,0.0,0.778,0.873,0.532,75.34,109.93,-28346.0,10796.08,8119.04,157.56,-264.18,259.82
2520,0.564,0.0,1.0,0.846,0.532,75.34,109.82,-28306.0,11072.08,8107.04,364.56,-89.18,252.82
2539,0.638,0.0,0.591,0.74,0.649,75.31,109.74,-28334.0,11152.08,7987.04,227.56,-208.18,146.82
2560,0.682,0.0,0.028,0.669,0.883,75.29,109.54,-28426.0,11268.08,8175.04,216.56,-79.18,63.82
2579,0.682,0.0,0.403,0.695,0.532,75.24,109.48,-28554.0,11084.08,7891.04,-27.44,-447.18,42.82
2599,0.667,0.0,1.0,0.669,0.532,75.21,109.35,-28538.0,10956.08,8055.04,96.56,-513.18,87.82
2620,0.682,0.0,0.903,0.677,0.532,75.16,109.21,-28218.0,11156.08,8079.04,323.56,-329.18,-21.18
2639,0.697,0.0,0.841,0.686,0.0,75.17,108.85,-28526.0,10920.08,8355.04,-38.44,-324.18,-57.18
2659,0.21,0.0,0.716,0.669,0.649,75.21,108.55,-28386.0,10812.08,8315.04,181.56,-238.18,-19.18
2679,0.667,0.0,0.653,0.74,1.0,75.26,108.39,-28270.0,10768.08,8151.04,337.56,-114.18,122.82
2699,0.638,0.0,0.403,0.686,1.0,75.3,107.98,-28434.0,10976.08,8455.04,80.56,12.82,114.82
2719,0.579,0.0,0.716,0.686,0.298,75.36,107.73,-28406.0,10736.08,8211.04,-15.44,-66.18,199.82
2739,0.638,0.0,0.903,0.66,1.0,75.4,107.58,-28338.0,10948.08,8107.04,248.56,42.82,208.82
2759,0.564,0.0,0.778,0.677,0.766,75.41,107.48,-28350.0,11048.08,8003.04,184.56,26.82,114.82
2779,0.593,0.0,0.903,0.66,0.649,75.42,107.33,-28366.0,11076.08,8075.04,228.56,17.82,114.82
2799,0.549,0.0,0.903,0.651,0.649,75.4,107.04,-28370.0,11192.08,8275.04,236.56,-38.18,52.82
2820,0.564,0.0,0.716,0.677,0.766,75.41,106.78,-28462.0,10948.08,8235.04,137.56,-180.18,138.82
2839,0.623,0.0,0.716,0.704,0.766,75.41,106.52,-28470.0,10972.08,8247.04,147.56,-162.18,114.82
2859,0.623,0.0,0.591,0.66,0.883,75.4,106.2,-28494.0,11008.08,8239.04,-226.44,-258.18,70.82
2879,0.549,0.0,0.841,0.651,0.0,75.43,106.04,-28202.0,10724.08,8139.04,206.56,-169.18,101.82
2900,0.623,0.0,0.591,0.66,0.883,75.45,105.92,-28234.0,11024.08,8131.04,625.56,100.82,49.82
2920,0.667,0.0,0.841,0.704,1.0,75.46,105.63,-28414.0,10992.08,8315.04,283.56,-5.18,55.82
2939,0.844,0.0,0.778,0.686,1.0,75.5,105.42,-28430.0,10932.08,8223.04,331.56,76.82,52.82
2960,0.638,0.0,0.716,0.686,0.532,75.49,105.24,-28430.0,11108.08,8111.04,128.56,-19.18,42.82
2979,0.638,0.0,0.778,0.66,0.649,75.47,105.09,-28438.0,11100.08,8071.04,213.56,-90.18,49.82
