timestamp,flex_1,flex_2,flex_3,flex_4,flex_5,kalman_pitch,kalman_roll,acc_x,acc_y,acc_z,gyro_x,gyro_y,gyro_z
0,0.71,0.0,0.0,0.089,0.386,28.71,107.15,728.24,-533.44,16910.16,5789.76,-1616.08,5288.12
20,0.998,0.409,0.0,0.279,0.0,4.99,55.05,-747.76,-1749.44,19242.16,8845.76,5397.92,5931.12
40,1.0,0.0,0.0,0.635,0.808,-5.28,31.88,-2003.76,-249.44,21482.16,9373.76,8598.92,5447.12
60,1.0,0.367,0.789,0.139,0.024,-11.85,17.34,-2247.76,-193.44,20650.16,7553.76,5228.92,6318.12
80,1.0,0.607,0.0,0.163,0.356,-17.81,6.65,-863.76,-73.44,19314.16,5096.76,220.92,5958.12
100,1.0,0.0,0.0,0.279,0.0,-21.79,-1.83,-1699.76,-997.44,19538.16,2165.76,-1544.08,5465.12
120,1.0,0.303,1.0,0.081,0.0,-24.23,-8.77,-2059.76,-3129.44,21030.16,709.76,-2751.08,5317.12
140,1.0,0.084,0.0,0.767,1.0,-25.93,-13.67,-1899.76,-3577.44,22334.16,3634.76,-2156.08,6468.12
160,1.0,0.048,1.0,0.767,1.0,-26.53,-16.48,-3519.76,-3789.44,25054.16,8365.76,-1540.08,8377.12
180,1.0,0.076,0.0,0.254,0.386,-27.38,-18.44,-3423.76,-2105.44,24978.16,8137.76,-2733.08,7800.12
200,1.0,0.013,0.432,0.0,0.748,-28.75,-21.45,-1911.76,-3461.44,24686.16,1075.76,-5209.08,8738.12
220,0.773,0.084,1.0,0.0,0.718,-30.25,-25.33,516.24,-4841.44,26794.16,-8167.24,-5985.08,8628.12
240,1.0,0.317,1.0,0.0,1.0,-31.42,-29.75,-87.76,-7525.44,30338.16,-14901.24,-8165.08,10591.12
260,1.0,0.0,0.491,0.122,0.989,-33.33,-34.72,4404.24,-9285.44,25570.16,-15426.24,-8365.08,13970.12
280,0.533,0.076,0.0,0.105,0.567,-34.28,-39.36,2180.24,-8381.44,22558.16,-13454.24,-2884.08,18482.12
300,0.953,0.076,0.61,1.0,0.507,-33.82,-43.41,-6359.76,-9765.44,25678.16,-14059.24,-4135.08,25387.12
320,1.0,0.423,1.0,0.13,0.0,-33.86,-47.69,2704.24,-14301.44,14902.16,-3175.24,2012.92,31198.12
341,1.0,0.048,0.908,0.445,0.808,-35.76,-52.28,5624.24,-16437.44,20690.16,-13225.24,-10907.08,32912.12
360,1.0,0.239,0.0,0.23,1.0,-36.8,-56.3,7424.24,-16637.44,15734.16,-6467.24,-3861.08,32912.12
380,1.0,0.0,1.0,0.039,0.0,-36.62,-59.53,6680.24,-14869.44,13690.16,-1034.24,4819.92,32912.12
400,1.0,0.19,0.0,0.221,0.0,-35.15,-62.37,4736.24,-16381.44,15658.16,-1491.24,11636.92,32912.12
420,1.0,0.168,0.0,0.0,0.175,-32.83,-64.32,2124.24,-13385.44,17578.16,608.76,17595.92,32912.12
440,0.891,0.126,0.0,0.0,0.507,-30.31,-66.49,1840.24,-12985.44,16762.16,-1037.24,20145.92,32912.12
460,0.859,0.388,0.0,0.089,1.0,-27.67,-69.24,312.24,-10489.44,14854.16,-4491.24,22415.92,32912.12
480,0.686,0.204,1.0,0.014,1.0,-24.28,-71.86,-2335.76,-10117.44,16542.16,-7005.24,26358.92,32912.12
500,0.483,0.338,0.0,0.0,0.0,-20.05,-74.41,-5691.76,-9717.44,16822.16,-8038.24,30400.92,32912.12
520,0.513,0.253,0.0,0.13,0.115,-16.64,-78.03,-7619.76,-6153.44,13490.16,-13438.24,26125.92,32912.12
540,0.644,0.0,1.0,0.097,0.507,-13.48,-83.09,-9503.76,-5209.44,12430.16,-23508.24,23551.92,32912.12
560,0.59,0.239,0.0,0.0,0.537,-10.62,-87.1,-9999.76,-4741.44,12442.16,-18452.24,22093.92,32912.12
580,0.583,0.282,0.0,0.13,0.869,-8.52,-90.29,-11059.76,-2277.44,10994.16,-12045.24,17132.92,32912.12
600,0.421,0.65,0.015,0.048,0.446,-8.3,-93.78,-10735.76,694.56,9598.16,-11635.24,7577.92,31315.12
620,0.587,0.0,0.967,0.13,0.054,-9.64,-96.98,-10675.76,4462.56,9738.16,-9311.24,3202.92,26125.12
640,0.625,0.416,1.0,0.618,0.0,-12.08,-97.98,-11883.76,7162.56,10926.16,-10085.24,1408.92,21176.12
660,0.417,0.0,1.0,0.006,0.0,-11.97,-98.71,-13335.76,5226.56,13474.16,-16955.24,-2118.08,13903.12
680,0.592,0.317,0.0,0.321,0.296,-12.3,-100.26,-14587.76,742.56,15730.16,-19207.24,-8008.08,5297.12
700,0.579,0.076,0.0,0.0,0.0,-12.36,-99.24,-15875.76,878.56,19266.16,-8420.24,-8161.08,-2280.88
720,0.45,0.352,1.0,0.0,0.386,-11.0,-95.86,-19187.76,3122.56,20502.16,2665.76,-4630.08,-6732.88
740,0.334,0.296,0.0,0.527,0.537,-8.39,-93.19,-23139.76,342.56,20870.16,2533.76,598.92,-10107.88
760,0.174,0.204,1.0,0.0,1.0,-4.35,-91.57,-26823.76,-3257.44,21098.16,-144.24,9600.92,-12387.88
780,0.246,0.168,0.0,0.172,0.0,0.04,-91.44,-26379.76,-12469.44,19146.16,-2130.24,17539.92,-9890.88
800,0.487,0.268,0.0,0.395,0.0,7.38,-92.12,-32891.76,-7745.44,13146.16,-2638.24,31438.92,-1724.88
820,0.323,0.0,0.908,0.072,0.024,14.09,-94.19,-33119.76,-10465.44,5610.16,-3005.24,31438.92,5097.12
840,0.391,0.126,0.0,0.23,0.296,19.8,-96.89,-31063.76,-11817.44,-5809.84,1744.76,31438.92,13675.12
860,0.476,0.119,0.0,0.139,0.0,24.23,-99.38,-22439.76,-8485.44,-12725.84,8527.76,31438.92,24123.12
880,0.636,0.062,0.0,0.445,0.446,28.3,-101.27,-21675.76,-5769.44,-15537.84,15066.76,31438.92,32912.12
901,0.43,0.0,0.074,0.155,0.175,31.37,-103.9,-16631.76,-5017.44,-18169.84,11082.76,30194.92,32912.12
920,0.338,0.154,0.074,0.0,1.0,30.9,-107.45,-7327.76,-5349.44,-21805.84,4793.76,13345.92,32912.12
940,0.349,0.331,0.61,0.039,0.748,29.15,-111.13,-10931.76,-2945.44,-20773.84,4210.76,2372.92,32912.12
960,0.325,0.076,0.015,0.205,0.0,26.05,-113.84,-9739.76,1698.56,-14573.84,11936.76,-5993.08,32912.12
980,0.177,0.0,1.0,0.263,0.929,22.08,-115.57,-12063.76,3402.56,-9565.84,18528.76,-14729.08,32912.12
1000,0.587,0.154,1.0,0.321,1.0,16.74,-118.11,-11331.76,5806.56,-5673.84,14615.76,-24246.08,32912.12
1020,0.57,0.529,0.313,0.0,0.718,10.42,-121.13,-9983.76,5814.56,-3437.84,10237.76,-30491.08,32912.12
1040,0.496,0.0,0.908,0.089,0.808,4.02,-124.68,-10375.76,6098.56,-2953.84,6121.76,-33837.08,32912.12
1060,0.697,0.614,0.908,0.0,0.869,-2.9,-109.17,-9423.76,10098.56,3010.16,4749.76,-34096.08,32912.12
1080,0.603,0.154,1.0,0.056,0.416,-7.66,-95.94,-13695.76,12122.56,6778.16,5679.76,-34096.08,32912.12
1100,0.563,0.452,0.253,0.321,0.115,-14.61,-85.21,-11327.76,10534.56,10354.16,7762.76,-34096.08,32912.12
1120,0.666,0.197,0.0,0.0,0.899,-20.59,-71.8,-11119.76,11750.56,8646.16,19603.76,-34096.08,32912.12
1140,0.531,0.416,0.0,0.312,0.0,-27.07,-54.31,-4791.76,10670.56,1966.16,33261.76,-33606.08,28724.12
1160,0.557,0.19,0.0,0.321,0.265,-31.97,-39.89,-3579.76,16402.56,5258.16,33322.76,-24627.08,23647.12
1180,0.456,0.77,0.908,0.13,0.446,-34.32,-27.09,-6687.76,18970.56,7642.16,33322.76,-14291.08,20500.12
1200,0.59,0.855,1.0,0.602,0.959,-35.01,-16.13,-9587.76,22614.56,12514.16,33322.76,-10084.08,20585.12
1220,0.867,1.0,0.551,0.602,0.477,-36.97,-8.11,-3039.76,18246.56,7322.16,6621.76,-7694.08,9518.12
1240,0.955,0.827,0.432,0.742,1.0,-38.22,-5.18,-3775.76,13818.56,14222.16,-6690.24,432.92,3744.12
1260,0.62,1.0,1.0,0.817,0.0,-36.35,-1.01,-10095.76,18642.56,20502.16,6417.76,5532.92,1834.12
1280,0.992,1.0,1.0,1.0,0.054,-32.54,4.76,-14323.76,17846.56,18686.16,17493.76,13011.92,1103.12
1300,0.963,1.0,0.0,0.957,0.0,-29.55,9.73,-18727.76,23550.56,16066.16,6075.76,3285.92,-8597.88
1320,0.92,0.869,1.0,1.0,0.446,-27.25,13.34,-28039.76,29134.56,13418.16,-6522.24,-6886.08,-15175.88
1340,0.996,0.763,1.0,0.982,1.0,-24.4,15.89,-34239.76,25838.56,11698.16,-14390.24,-8324.08,-19086.88
1361,1.0,0.657,0.074,0.916,0.597,-21.05,18.79,-43931.76,25998.56,10130.16,-13443.24,-7994.08,-18887.88
1380,0.953,1.0,0.0,0.709,0.446,-17.93,22.6,-45951.76,26358.56,8962.16,-7920.24,-9236.08,-13765.88
1400,0.959,1.0,0.551,1.0,1.0,-15.14,27.09,-45951.76,29846.56,8622.16,-2286.24,-9228.08,-9312.88
1420,1.0,1.0,0.372,0.924,0.477,-12.27,31.04,-45951.76,30238.56,9390.16,-3986.24,-7933.08,-6847.88
1440,1.0,0.989,0.848,0.676,0.869,-9.15,33.89,-42011.76,26930.56,12510.16,-7208.24,-5814.08,-4427.88
1460,1.0,0.742,0.0,0.916,0.0,-5.67,37.44,-36019.76,22126.56,11850.16,-1735.24,-3248.08,-523.88
1480,1.0,1.0,1.0,0.767,0.0,-1.74,41.59,-31523.76,20090.56,11066.16,2366.76,1300.92,2631.12
1500,0.95,0.869,0.0,0.8,1.0,2.39,45.91,-28791.76,19586.56,10518.16,3814.76,4939.92,3413.12
1520,0.922,1.0,1.0,0.966,1.0,6.28,49.47,-26319.76,18266.56,9874.16,-1390.24,5014.92,2842.12
1540,0.841,0.777,0.0,0.866,1.0,10.18,52.26,-24423.76,14654.56,9742.16,-6827.24,3453.92,1925.12
1560,0.845,1.0,1.0,0.792,0.205,13.97,55.32,-22447.76,11974.56,9910.16,-4827.24,987.92,3110.12
1580,0.797,0.848,0.0,0.833,1.0,16.84,59.61,-20939.76,13498.56,9302.16,3032.76,335.92,4410.12
1600,0.749,0.402,1.0,0.693,0.446,19.22,63.71,-21107.76,16230.56,9482.16,4985.76,1634.92,2882.12
1620,0.918,1.0,0.61,0.924,0.084,21.59,66.42,-23679.76,17762.56,10614.16,-571.24,1017.92,254.12
1640,0.664,0.904,1.0,0.403,1.0,23.78,68.46,-23759.76,16590.56,9966.16,-5846.24,-818.08,-1490.88
1660,0.692,0.416,1.0,0.883,0.0,26.15,70.08,-24167.76,15086.56,10678.16,-6277.24,-1359.08,-2053.88
1680,0.716,0.586,0.0,0.9,0.0,28.42,72.01,-25451.76,15394.56,11798.16,-560.24,-1728.08,-841.88
1700,0.771,1.0,0.729,0.734,0.296,30.27,74.75,-26183.76,17906.56,12002.16,5119.76,-1809.08,-506.88
1720,1.0,0.876,1.0,1.0,0.597,31.92,77.23,-27219.76,19478.56,11602.16,3145.76,-2010.08,-1370.88
1740,0.953,0.593,1.0,1.0,1.0,33.62,78.99,-26479.76,18110.56,10642.16,-2682.24,-2020.08,-2542.88
1760,0.937,0.904,0.0,0.718,0.688,35.6,80.18,-26547.76,16878.56,11458.16,-4091.24,-798.08,-2612.88
1780,0.677,0.756,1.0,0.833,0.296,37.71,81.28,-27251.76,16466.56,12118.16,-2609.24,-148.08,-1903.88
1800,0.95,0.643,0.0,0.924,0.537,39.69,82.57,-27615.76,16530.56,12478.16,-40.24,-468.08,-1032.88
1820,0.714,0.628,1.0,0.9,0.0,41.44,84.38,-27695.76,17386.56,11890.16,2356.76,-818.08,-723.88
1840,0.743,0.31,0.0,0.536,1.0,43.02,86.1,-27471.76,17746.56,11518.16,1454.76,-973.08,-805.88
1860,0.815,1.0,1.0,0.585,0.175,44.6,87.62,-27047.76,17238.56,11154.16,36.76,-777.08,-536.88
1880,0.673,1.0,0.0,0.767,1.0,46.22,88.88,-27079.76,17078.56,11370.16,-666.24,-175.08,-533.88
1900,0.813,0.65,1.0,1.0,0.869,47.89,89.87,-27343.76,16574.56,11954.16,-639.24,68.92,-327.88
1919,0.813,0.82,1.0,0.99,0.0,49.45,91.09,-27115.76,16686.56,11698.16,794.76,11.92,5.12
1940,0.675,0.982,0.015,0.883,0.0,50.85,92.51,-26927.76,17058.56,11454.16,1937.76,-89.08,212.12
1960,0.692,0.565,0.0,0.866,0.778,52.13,94.03,-26683.76,17394.56,10842.16,1828.76,48.92,169.12
1980,0.732,0.848,1.0,0.974,1.0,53.38,95.37,-26379.76,17322.56,10558.16,487.76,326.92,-92.88
2000,0.723,0.904,0.193,0.643,0.748,54.62,96.42,-26519.76,17158.56,10738.16,-558.24,386.92,-139.88
2020,0.736,0.89,0.0,0.668,1.0,55.81,97.31,-26179.76,16450.56,10690.16,-1299.24,48.92,-114.88
2040,0.741,0.876,1.0,1.0,0.115,57.04,98.21,-26339.76,16010.56,10770.16,-700.24,65.92,164.12
2060,0.784,0.515,0.61,0.643,1.0,58.09,98.99,-26615.76,16570.56,11378.16,273.76,-277.08,304.12
2080,0.712,0.657,1.0,0.916,0.0,58.93,99.9,-26427.76,16818.56,11262.16,1233.76,-1013.08,600.12
2100,0.848,0.989,0.313,0.792,1.0,59.64,100.89,-26187.76,17226.56,11002.16,1446.76,-943.08,439.12
2120,0.837,0.643,1.0,0.602,0.446,60.38,101.62,-26387.76,17314.56,11362.16,894.76,-590.08,230.12
2140,0.743,0.636,0.61,0.569,1.0,61.19,102.02,-26667.76,16850.56,11734.16,-103.24,-365.08,10.12
2160,0.797,0.643,1.0,0.718,0.115,62.04,102.39,-26659.76,16410.56,11494.16,-400.24,-330.08,-265.88
2180,0.745,0.685,1.0,0.569,0.0,62.84,102.8,-26791.76,16446.56,11698.16,498.76,-366.08,-234.88
2200,0.778,0.869,1.0,0.833,0.778,63.58,103.37,-26527.76,16418.56,11286.16,927.76,-364.08,-153.88
2220,0.8,0.735,1.0,0.709,0.839,64.32,103.9,-26411.76,16550.56,11158.16,650.76,84.92,-336.88
2240,0.749,0.77,0.0,0.395,0.899,65.01,104.3,-26587.76,16702.56,11326.16,383.76,143.92,-289.88
2260,0.773,0.657,0.253,0.411,0.115,65.58,104.56,-26527.76,16674.56,11462.16,17.76,-430.08,-144.88
2280,0.762,0.77,1.0,0.751,0.748,66.07,104.75,-26467.76,16478.56,11446.16,-234.24,-886.08,-55.88
2300,0.968,0.975,0.0,0.709,0.0,66.48,104.94,-26423.76,16554.56,11514.16,59.76,-1074.08,85.12
2320,0.817,0.805,0.0,0.668,1.0,66.85,105.17,-26431.76,16798.56,11482.16,422.76,-942.08,204.12
2340,0.815,0.636,1.0,0.883,0.235,67.18,105.31,-26803.76,17142.56,11578.16,107.76,-924.08,254.12
2360,0.673,0.777,0.134,0.602,0.084,67.49,105.39,-26355.76,16854.56,11474.16,-304.24,-927.08,234.12
2380,0.719,0.855,1.0,0.221,1.0,67.82,105.43,-26571.76,16938.56,11438.16,-479.24,-634.08,183.12
2400,0.741,0.735,0.0,0.304,0.0,68.13,105.44,-26643.76,16878.56,11502.16,-406.24,-697.08,89.12
2420,0.789,0.586,1.0,0.66,0.688,68.4,105.49,-26427.76,16818.56,11418.16,-118.24,-725.08,57.12
2440,0.751,0.954,0.551,0.651,1.0,68.69,105.46,-26447.76,16822.56,11626.16,-113.24,-464.08,23.12
2460,0.701,0.834,1.0,0.378,1.0,68.93,105.35,-26483.76,16954.56,11910.16,31.76,-389.08,88.12
2480,0.743,0.253,0.0,0.8,0.0,69.15,105.29,-26315.76,16922.56,11686.16,48.76,-390.08,53.12
2500,0.647,0.416,0.0,0.767,0.0,69.39,105.18,-26571.76,17066.56,11702.16,-273.24,-176.08,5.12
2520,0.701,0.869,0.551,0.742,1.0,69.67,104.92,-26707.76,16742.56,11770.16,-853.24,-83.08,31.12
2540,0.743,0.77,0.0,0.751,1.0,69.9,104.61,-26715.76,16678.56,12006.16,-682.24,-252.08,3.12
2560,0.738,0.869,0.967,0.924,0.386,70.06,104.43,-26571.76,16826.56,12006.16,264.76,-393.08,281.12
2580,0.789,0.728,1.0,0.569,1.0,70.18,104.3,-26395.76,17106.56,11994.16,568.76,-134.08,243.12
2600,0.743,0.862,1.0,0.751,0.899,70.3,104.1,-26683.76,17390.56,12150.16,313.76,55.92,82.12
2620,0.813,1.0,1.0,0.817,0.658,70.45,103.84,-26563.76,16886.56,11946.16,-176.24,-2.08,68.12
2640,0.708,0.912,1.0,0.13,1.0,70.59,103.56,-26443.76,16918.56,12054.16,-81.24,183.92,47.12
2660,0.981,0.883,1.0,0.66,0.778,70.73,103.29,-26467.76,16878.56,12138.16,238.76,261.92,148.12
2680,0.797,0.345,0.0,0.825,0.0,70.86,102.96,-26583.76,16818.56,12178.16,-2.24,185.92,31.12
2700,0.931,0.65,0.432,1.0,1.0,70.96,102.74,-26523.76,16874.56,12038.16,432.76,210.92,-20.88
2720,0.754,0.777,0.0,1.0,0.0,71.01,102.57,-26655.76,17166.56,11810.16,333.76,141.92,-30.88
2740,0.848,0.82,1.0,1.0,1.0,71.04,102.32,-26479.76,16958.56,11842.16,-81.24,25.92,72.12
2760,0.883,0.735,1.0,0.916,0.0,71.09,102.05,-26463.76,16710.56,11842.16,-81.24,13.92,251.12
2780,0.848,0.636,0.432,0.602,1.0,71.1,101.83,-26611.76,16918.56,11858.16,268.76,-26.08,310.12
2800,0.673,0.643,0.61,0.66,1.0,71.07,101.66,-26543.76,16986.56,11710.16,339.76,-144.08,303.12
2820,0.712,1.0,0.0,1.0,0.778,71.0,101.46,-26427.76,16982.56,11650.16,99.76,-282.08,206.12
2840,0.657,0.749,0.967,0.66,0.446,70.91,101.31,-26403.76,16950.56,11474.16,54.76,-405.08,95.12
2860,0.734,0.805,0.967,0.321,1.0,70.77,101.16,-26167.76,16886.56,11358.16,-89.24,-602.08,41.12
2880,0.675,0.501,1.0,0.751,0.899,70.66,101.03,-25999.76,16678.56,11338.16,69.76,-433.08,86.12
2900,0.666,0.643,0.789,0.602,1.0,70.59,100.75,-26379.76,16954.56,11810.16,92.76,-8.08,-183.88
2920,0.675,1.0,1.0,0.585,1.0,70.56,100.33,-26563.76,16654.56,11954.16,-475.24,-151.08,-373.88
2940,0.684,0.933,0.0,0.271,0.416,70.48,99.86,-26439.76,16214.56,11994.16,-492.24,-695.08,-281.88
2960,0.647,0.742,0.0,0.842,1.0,70.31,99.47,-26391.76,16646.56,12102.16,26.76,-804.08,-130.88
2980,0.732,0.791,0.61,0.676,0.054,70.16,99.07,-26379.76,16550.56,12042.16,-117.24,-785.08,77.12
