timestamp,flex_1,flex_2,flex_3,flex_4,flex_5,kalman_pitch,kalman_roll,acc_x,acc_y,acc_z,gyro_x,gyro_y,gyro_z
0,0.0,0.415,0.525,0.0,0.791,-3.83,14.68,432.16,-1781.2,14595.12,286.7,-1272.04,-716.54
21,0.0,0.441,0.558,0.0,0.469,-19.78,0.15,496.16,-1669.2,14811.12,449.7,-489.04,-508.54
40,0.0,0.432,0.525,0.0,0.576,-28.48,-7.91,712.16,-1693.2,14735.12,-185.3,692.96,391.46
60,0.0,0.347,0.525,0.0,0.826,-33.94,-13.23,664.16,-1769.2,14799.12,-1400.3,591.96,1726.46
81,0.0,0.313,0.525,0.0,0.791,-37.73,-18.06,1320.16,-2945.2,14639.12,-1826.3,472.96,2260.46
101,0.0,0.33,0.525,0.0,0.683,-40.35,-21.76,1584.16,-3369.2,14983.12,-1645.3,1146.96,2678.46
121,0.0,0.304,0.525,0.0,0.469,-41.49,-25.74,3240.16,-6329.2,15511.12,-1301.3,5274.96,3879.46
141,0.0,0.236,0.525,0.0,0.719,-40.79,-29.05,2184.16,-8193.2,16067.12,884.7,12246.96,6823.46
161,0.0,0.219,0.525,0.0,0.469,-38.66,-30.79,-1883.84,-8873.2,19031.12,3232.7,12742.96,10533.46
181,0.0,0.176,0.525,0.0,0.648,-36.5,-31.45,-5911.84,-7625.2,19175.12,6624.7,8045.96,14504.46
201,0.0,0.116,0.427,0.0,1.0,-35.56,-31.89,-1827.84,-8753.2,20423.12,7382.7,6747.96,18465.46
221,0.0,0.151,0.427,0.0,0.576,-34.49,-32.48,-3575.84,-9389.2,21907.12,4760.7,4764.96,22169.46
241,0.0,0.057,0.525,0.0,0.719,-33.28,-33.07,-1883.84,-10821.2,23251.12,4505.7,7501.96,22976.46
261,0.0,0.065,0.427,0.0,0.719,-31.25,-33.92,-2371.84,-12353.2,23003.12,4042.7,13155.96,24553.46
281,0.0,0.04,0.427,0.0,0.683,-28.41,-34.3,-4407.84,-15325.2,26483.12,6482.7,15980.96,28093.46
301,0.0,0.04,0.46,0.0,0.683,-25.6,-33.14,-4903.84,-17013.2,26899.12,17934.7,16505.96,32899.46
321,0.0,0.048,0.493,0.0,0.648,-22.26,-29.9,-4211.84,-13233.2,26795.12,30209.7,23158.96,32899.46
341,0.0,0.04,0.427,0.0,0.826,-18.01,-26.14,-6163.84,-9065.2,27687.12,31120.7,29741.96,32899.46
361,0.0,0.04,0.525,0.0,0.54,-13.33,-22.61,-9335.84,-5125.2,28911.12,26671.7,31543.96,32899.46
381,0.0,0.023,0.427,0.0,0.683,-8.41,-20.08,-12823.84,-5533.2,28627.12,21849.7,31543.96,31087.46
401,0.0,0.023,0.328,0.0,0.683,-3.82,-17.64,-12787.84,-4893.2,27415.12,22113.7,31543.96,29267.46
421,0.0,0.014,0.296,0.0,0.791,0.76,-14.13,-14343.84,98.8,26835.12,25255.7,31543.96,28033.46
441,0.0,0.014,0.427,0.0,0.719,5.37,-11.06,-15795.84,1050.8,24403.12,22889.7,31543.96,22466.46
461,0.0,0.006,0.427,0.0,0.648,10.16,-8.31,-17831.84,2914.8,23003.12,19493.7,31543.96,17733.46
481,0.0,0.0,0.525,0.0,0.719,14.8,-5.81,-18255.84,3002.8,22247.12,18792.7,31543.96,15485.46
501,0.0,0.0,0.493,0.0,0.648,19.03,-3.05,-18435.84,4798.8,21367.12,18731.7,29939.96,12707.46
521,0.0,0.0,0.46,0.0,0.683,22.81,-0.66,-18191.84,4510.8,19675.12,17464.7,27868.96,9011.46
541,0.0,0.014,0.296,0.0,0.254,26.12,1.82,-17895.84,5462.8,18167.12,16943.7,25758.96,7061.46
561,0.0,0.0,0.493,0.0,0.826,28.97,4.26,-18243.84,6322.8,17259.12,15440.7,22780.96,5759.46
581,0.0,0.014,0.46,0.0,0.683,31.41,6.1,-18863.84,5466.8,16203.12,13422.7,18875.96,4444.46
601,0.0,0.0,0.361,0.0,0.898,33.14,7.79,-18503.84,5222.8,15655.12,13369.7,14953.96,4045.46
621,0.0,0.0,0.427,0.0,0.648,34.41,9.51,-18811.84,5970.8,15715.12,12498.7,12147.96,3899.46
641,0.0,0.0,0.361,0.0,0.504,35.32,11.02,-19351.84,6250.8,15551.12,10937.7,9135.96,4191.46
661,0.0,0.0,0.066,0.0,0.683,35.8,12.34,-19171.84,6054.8,14907.12,10064.7,6037.96,4300.46
681,0.0,0.0,0.525,0.0,0.612,36.14,13.65,-19767.84,7094.8,15063.12,8151.7,4901.96,3441.46
700,0.0,0.0,0.525,0.0,0.862,36.32,14.68,-20115.84,6886.8,15043.12,7092.7,3268.96,2872.46
720,0.0,0.0,0.427,0.0,0.683,36.25,15.77,-20115.84,7742.8,15311.12,6267.7,2246.96,2524.46
740,0.0,0.0,0.427,0.0,0.576,36.2,16.8,-20827.84,8318.8,15647.12,5410.7,2021.96,2112.46
760,0.0,0.0,0.525,0.0,0.683,36.19,17.79,-20771.84,8306.8,15243.12,4986.7,1912.96,1527.46
780,0.0,0.0,0.46,0.0,0.683,36.31,18.28,-19963.84,7194.8,13975.12,2690.7,1935.96,1169.46
800,0.0,0.0,0.427,0.0,0.791,36.36,19.66,-22255.84,10582.8,13643.12,1787.7,599.96,936.46
820,0.0,0.0,0.427,0.0,0.54,36.11,20.17,-17603.84,6282.8,13171.12,4630.7,2236.96,2753.46
841,0.0,0.014,0.427,0.0,0.469,36.87,23.16,-22751.84,11246.8,11107.12,7676.7,3636.96,3281.46
860,0.0,0.0,0.361,0.0,0.791,37.71,24.87,-22671.84,9122.8,12587.12,6078.7,3445.96,3421.46
880,0.0,0.0,0.361,0.0,0.504,38.38,26.67,-23119.84,9462.8,10931.12,2999.7,864.96,3024.46
901,0.0,0.0,0.525,0.0,0.683,38.69,27.82,-22627.84,9722.8,11151.12,-1021.3,-415.04,744.46
921,0.0,0.0,0.394,0.0,0.54,38.57,27.98,-22963.84,10370.8,12635.12,-5554.3,-1975.04,-1442.54
941,0.0,0.0,0.46,0.0,1.0,38.62,28.18,-22871.84,9466.8,12491.12,-4210.3,-1738.04,-923.54
960,0.0,0.014,0.558,0.0,0.397,39.1,29.02,-22947.84,9010.8,12435.12,938.7,583.96,489.46
980,0.0,0.0,0.525,0.0,0.576,39.53,30.03,-24167.84,9942.8,12559.12,871.7,75.96,534.46
1001,0.0,0.0,0.493,0.0,0.504,39.68,30.95,-23451.84,10274.8,12171.12,-766.3,-1114.04,403.46
1021,0.0,0.0,0.394,0.0,1.0,39.95,31.67,-23571.84,9818.8,12191.12,-1260.3,-804.04,536.46
1040,0.0,0.0,0.427,0.0,0.791,40.37,32.5,-24691.84,9982.8,12627.12,257.7,-389.04,1082.46
1060,0.0,0.0,0.46,0.0,0.469,40.63,33.51,-24187.84,10470.8,12423.12,522.7,-639.04,1589.46
1081,0.0,0.0,0.46,0.0,0.826,40.84,34.45,-24659.84,10702.8,12687.12,408.7,-1012.04,1533.46
1101,0.0,0.0,0.394,0.0,1.0,41.06,35.28,-24695.84,10770.8,12451.12,-611.3,-1041.04,579.46
1120,0.0,0.0,0.164,0.0,0.826,41.28,36.11,-24807.84,10934.8,12535.12,-510.3,-1016.04,73.46
1141,0.0,0.0,0.46,0.0,0.755,41.4,36.88,-24919.84,11194.8,12795.12,-645.3,-1292.04,-115.54
1161,0.0,0.0,0.493,0.0,0.826,41.61,37.52,-25003.84,10994.8,12819.12,-1024.3,-1037.04,-606.54
1181,0.0,0.0,0.46,0.0,0.826,41.83,38.03,-25711.84,10922.8,13027.12,-1334.3,-1375.04,-559.54
1201,0.0,0.0,0.0,0.0,0.648,42.01,38.53,-25487.84,10714.8,12943.12,-1130.3,-1719.04,78.46
1220,0.0,0.0,0.46,0.0,0.826,42.28,39.02,-25439.84,10602.8,13299.12,-315.3,-958.04,316.46
1240,0.0,0.0,0.493,0.0,0.719,42.49,39.55,-25883.84,11074.8,13719.12,16.7,-1000.04,250.46
1261,0.0,0.0,0.525,0.0,0.576,42.64,39.96,-26075.84,10990.8,13675.12,-556.3,-1597.04,-18.54
1281,0.0,0.0,0.361,0.0,0.576,42.77,40.76,-26039.84,12102.8,13355.12,243.7,-1182.04,-287.54
1301,0.0,0.0,0.427,0.0,0.791,42.74,40.8,-24843.84,10762.8,13595.12,-2639.3,-2055.04,-1011.54
1321,0.0,0.0,0.493,0.0,0.791,42.96,40.97,-25487.84,10726.8,13855.12,-1318.3,-826.04,-862.54
1341,0.0,0.0,0.427,0.0,0.719,43.23,41.21,-25179.84,10614.8,13851.12,-651.3,-249.04,-695.54
1360,0.0,0.0,0.427,0.0,0.648,43.55,41.42,-25887.84,10782.8,14259.12,-471.3,-62.04,-360.54
1381,0.0,0.0,0.525,0.0,0.934,43.9,41.56,-26059.84,10290.8,14063.12,-379.3,-369.04,-200.54
1401,0.0,0.0,0.525,0.0,0.683,44.19,41.77,-25695.84,10630.8,13943.12,-598.3,-253.04,-170.54
1420,0.0,0.0,0.46,0.0,0.791,44.46,41.88,-25923.84,10398.8,14075.12,-645.3,-615.04,101.46
1440,0.0,0.0,0.525,0.0,0.755,44.66,42.04,-24943.84,10314.8,13867.12,-526.3,-469.04,153.46
1460,0.0,0.0,0.493,0.0,0.826,44.92,42.32,-25415.84,10962.8,13827.12,-572.3,36.96,-417.54
1480,0.0,0.0,0.493,0.0,0.648,45.18,42.54,-25663.84,10878.8,14055.12,-539.3,25.96,-582.54
1501,0.0,0.0,0.427,0.0,0.791,45.43,42.59,-25391.84,10294.8,13907.12,-973.3,-305.04,-664.54
1520,0.0,0.0,0.394,0.0,0.683,45.74,42.69,-25339.84,10062.8,13855.12,-345.3,-9.04,-334.54
1540,0.0,0.0,0.525,0.0,0.683,46.02,42.92,-25967.84,10742.8,13947.12,-236.3,-25.04,107.46
1560,0.0,0.0,0.263,0.0,0.648,46.29,43.08,-25131.84,9962.8,13779.12,192.7,-130.04,158.46
1580,0.0,0.0,0.427,0.0,0.469,46.56,43.38,-25395.84,10770.8,14135.12,573.7,645.96,-28.54
1600,0.0,0.0,0.46,0.0,0.683,46.86,43.58,-25883.84,10814.8,14003.12,-324.3,365.96,-426.54
1621,0.0,0.0,0.493,0.0,0.469,47.08,43.65,-25403.84,10350.8,13767.12,-792.3,-108.04,-294.54
1640,0.0,0.0,0.525,0.0,0.648,47.3,43.65,-25471.84,10270.8,14015.12,-800.3,-73.04,-37.54
1660,0.0,0.0,0.525,0.0,1.0,47.54,43.59,-25103.84,9638.8,13887.12,-399.3,-53.04,104.46
1680,0.0,0.0,0.493,0.0,0.862,47.79,43.77,-25147.84,10186.8,13611.12,27.7,183.96,215.46
1700,0.0,0.0,0.525,0.0,0.898,48.02,43.95,-25731.84,10510.8,14067.12,182.7,222.96,456.46
1720,0.0,0.0,0.427,0.0,0.791,48.19,44.13,-25631.84,10714.8,13995.12,-99.3,32.96,247.46
1741,0.0,0.0,0.46,0.0,0.791,48.35,44.2,-25579.84,10630.8,13739.12,-1046.3,-175.04,-367.54
1760,0.0,0.0,0.361,0.0,0.54,48.55,44.28,-25531.84,10506.8,13735.12,-752.3,37.96,-672.54
1781,0.0,0.0,0.394,0.0,0.612,48.7,44.22,-25631.84,10606.8,14115.12,-1354.3,66.96,-1189.54
1800,0.0,0.0,0.493,0.0,0.648,48.92,44.16,-25151.84,9386.8,13515.12,-391.3,-374.04,-792.54
1820,0.0,0.287,0.361,0.0,0.683,49.04,44.26,-25647.84,10310.8,14219.12,296.7,-182.04,169.46
1840,0.0,0.0,0.525,0.0,0.504,49.15,44.26,-25707.84,10174.8,14267.12,-85.3,-341.04,496.46
1860,0.0,0.0,0.525,0.0,0.612,49.26,43.98,-25127.84,9302.8,14331.12,-523.3,-440.04,392.46
1880,0.0,0.0,0.69,0.0,0.683,49.3,44.15,-25083.84,10166.8,13899.12,515.7,-514.04,768.46
1901,0.0,0.0,0.821,0.0,0.683,49.32,44.41,-25307.84,11066.8,14263.12,511.7,-52.04,597.46
1920,0.0,0.0,0.328,0.0,0.791,49.39,44.54,-25239.84,10758.8,14019.12,-264.3,10.96,-89.54
1940,0.0,0.0,0.427,0.0,0.755,49.47,44.54,-25035.84,10250.8,13887.12,-555.3,-164.04,-93.54
1960,0.0,0.0,0.525,0.0,0.648,49.66,44.5,-25383.84,9814.8,14011.12,-5.3,132.96,-55.54
1980,0.0,0.0,0.328,0.0,0.648,49.81,44.68,-25403.84,10642.8,13883.12,56.7,346.96,-140.54
2000,0.0,0.0,0.197,0.0,0.683,49.94,44.76,-25715.84,10478.8,13843.12,-309.3,-60.04,-57.54
2020,0.0,0.0,0.46,0.0,0.826,49.98,44.86,-25655.84,10682.8,13843.12,-485.3,-541.04,33.46
2040,0.0,0.0,0.361,0.0,0.648,50.05,44.9,-25087.84,9878.8,13707.12,106.7,-464.04,-152.54
2060,0.0,0.0,0.328,0.0,0.683,50.1,45.1,-25335.84,10854.8,14139.12,517.7,111.96,-364.54
2080,0.0,0.0,0.361,0.0,0.648,50.21,45.08,-25627.84,10434.8,14111.12,-454.3,75.96,-769.54
2101,0.0,0.0,0.525,0.0,0.54,50.29,44.92,-25791.84,10150.8,14251.12,-875.3,-346.04,-639.54
2120,0.0,0.0,0.427,0.0,0.719,50.3,44.77,-25287.84,9802.8,14079.12,-494.3,-731.04,-192.54
2140,0.0,0.0,0.525,0.0,0.648,50.34,44.68,-25403.84,9818.8,14267.12,124.7,-502.04,336.46
2160,0.0,0.0,0.427,0.0,0.719,50.44,44.73,-25271.84,10038.8,14219.12,624.7,120.96,366.46
2180,0.0,0.0,0.493,0.0,0.576,50.57,44.75,-25751.84,10326.8,14407.12,305.7,347.96,60.46
2200,0.0,0.0,0.46,0.0,0.648,50.68,44.74,-25663.84,10266.8,14307.12,122.7,149.96,-42.54
2220,0.0,0.0,0.493,0.0,0.683,50.78,44.75,-25391.84,10214.8,13895.12,-239.3,80.96,-297.54
2240,0.0,0.0,0.394,0.0,0.648,50.89,44.75,-25455.84,10234.8,13907.12,-308.3,103.96,-387.54
2261,0.0,0.0,0.46,0.0,0.683,50.97,44.71,-25559.84,10070.8,13975.12,-228.3,-248.04,-111.54
2280,0.0,0.0,0.525,0.0,0.576,50.97,44.73,-25459.84,10246.8,14059.12,11.7,-453.04,81.46
2300,0.0,0.0,0.493,0.0,0.826,51.02,44.81,-25099.84,10286.8,13915.12,189.7,51.96,-16.54
2320,0.0,0.0,0.361,0.0,0.0,51.15,44.83,-25663.84,10266.8,14227.12,314.7,443.96,-173.54
2340,0.0,0.0,0.525,0.0,0.648,51.19,44.81,-25719.84,10306.8,14243.12,-57.3,-182.04,-199.54
2360,0.0,0.0,0.493,0.0,0.719,51.24,44.7,-25343.84,9910.8,13983.12,-356.3,-236.04,-316.54
2380,0.0,0.0,0.328,0.0,0.612,51.31,44.66,-25391.84,10042.8,14095.12,-51.3,5.96,-148.54
2400,0.0,0.0,0.328,0.0,0.791,51.35,44.58,-25515.84,9934.8,14335.12,240.7,-101.04,227.46
2421,0.0,0.0,0.328,0.0,0.683,51.37,44.51,-25427.84,10178.8,14423.12,19.7,-40.04,203.46
2440,0.0,0.0,0.23,0.0,0.826,51.47,44.43,-25319.84,9842.8,14163.12,79.7,275.96,70.46
2460,0.0,0.0,0.197,0.0,0.683,51.52,44.43,-25635.84,10402.8,14239.12,-47.3,129.96,158.46
2480,0.0,0.0,0.427,0.0,1.0,51.55,44.39,-25439.84,10150.8,14099.12,-100.3,-84.04,248.46
2500,0.0,0.0,0.427,0.0,0.648,51.59,44.35,-25367.84,10238.8,14103.12,-289.3,102.96,262.46
2520,0.0,0.0,0.394,0.0,0.719,51.7,44.11,-25839.84,9538.8,14259.12,-427.3,-104.04,255.46
2540,0.0,0.0,0.099,0.0,0.648,51.71,44.12,-25203.84,10078.8,14151.12,270.7,21.96,384.46
2560,0.0,0.0,0.361,0.0,0.683,51.7,44.09,-25615.84,10654.8,14323.12,-511.3,20.96,2.46
2580,0.0,0.0,0.197,0.0,0.612,51.71,43.9,-25483.84,9774.8,14303.12,-432.3,-288.04,2.46
2600,0.0,0.0,0.525,0.0,0.54,51.72,43.95,-25031.84,10206.8,14143.12,400.7,216.96,-93.54
2620,0.0,0.0,0.493,0.0,0.719,51.74,43.93,-25479.84,10586.8,14231.12,-503.3,264.96,-393.54
2640,0.0,0.0,0.493,0.0,0.504,51.78,43.81,-25311.84,9690.8,13991.12,-301.3,-169.04,55.46
2660,0.0,0.0,0.394,0.0,0.54,51.83,43.75,-25419.84,9766.8,14139.12,272.7,-88.04,566.46
2680,0.0,0.0,0.394,0.0,1.0,51.82,43.77,-25431.84,10310.8,14151.12,-34.3,-43.04,510.46
2701,0.0,0.0,0.394,0.0,0.54,51.84,43.7,-25399.84,9934.8,14007.12,-244.3,-217.04,280.46
2720,0.0,0.0,0.394,0.0,0.683,51.82,43.77,-25327.84,10466.8,14055.12,20.7,-64.04,286.46
2740,0.0,0.0,0.525,0.0,0.576,51.81,43.78,-25423.84,10638.8,14191.12,-402.3,178.96,-148.54
2760,0.0,0.0,0.394,0.0,0.576,51.82,43.66,-25387.84,9902.8,14163.12,-390.3,-148.04,-242.54
2780,0.0,0.0,0.46,0.0,0.648,51.8,43.68,-25347.84,10270.8,14219.12,158.7,-32.04,-140.54
2801,0.0,0.0,0.525,0.0,0.719,51.77,43.67,-25459.84,10402.8,14175.12,-272.3,-146.04,-201.54
2821,0.0,0.0,0.328,0.0,0.934,51.73,43.64,-25231.84,10398.8,14023.12,-640.3,-163.04,-176.54
2840,0.0,0.0,0.394,0.0,0.97,51.74,43.5,-25499.84,9690.8,14291.12,-39.3,-254.04,339.46
2860,0.0,0.0,0.23,0.0,0.826,51.68,43.63,-25367.84,10438.8,14299.12,740.7,-189.04,672.46
2880,0.0,0.0,0.46,0.0,0.719,51.67,43.67,-25583.84,10538.8,14239.12,-19.3,-44.04,198.46
2901,0.0,0.0,0.361,0.0,0.719,51.59,43.59,-24835.84,10166.8,14215.12,-381.3,-137.04,-189.54
2920,0.0,0.0,0.394,0.0,0.791,51.59,43.55,-25563.84,10202.8,14303.12,-3.3,-84.04,-195.54
2940,0.0,0.0,0.328,0.0,0.612,51.55,43.6,-25467.84,10490.8,14231.12,44.7,-152.04,-64.54
2960,0.0,0.0,0.46,0.0,0.683,51.54,43.58,-25235.84,10254.8,14139.12,-156.3,32.96,-172.54
2980,0.0,0.0,0.328,0.0,0.755,51.54,43.48,-25615.84,10066.8,14239.12,-365.3,-245.04,-10.54
