timestamp,flex_1,flex_2,flex_3,flex_4,flex_5,kalman_pitch,kalman_roll,acc_x,acc_y,acc_z,gyro_x,gyro_y,gyro_z
0,1.0,0.437,0.458,0.458,0.478,-4.21,39.93,2962.96,-3398.4,18176.8,88.52,442.4,118.48
20,1.0,0.429,0.531,0.436,0.527,2.51,27.65,2710.96,-3838.4,18136.8,-903.48,403.4,-203.52
40,1.0,0.421,0.604,0.453,0.38,6.01,21.17,2710.96,-3714.4,18564.8,-567.48,462.4,-266.52
60,1.0,0.406,0.604,0.424,0.429,8.17,17.05,2806.96,-3942.4,18284.8,310.52,327.4,-435.52
80,1.0,0.39,1.0,0.475,0.429,9.45,14.6,3146.96,-3514.4,18156.8,1332.52,133.4,-522.52
99,1.0,0.343,0.751,0.47,0.429,10.57,12.69,2802.96,-3806.4,18592.8,1510.52,736.4,-2335.52
119,1.0,0.414,0.751,0.447,0.282,11.29,11.98,3390.96,-2454.4,19216.8,2454.52,2178.4,-5536.52
140,1.0,0.429,0.897,0.453,0.282,11.98,11.17,3758.96,-2850.4,18812.8,1587.52,3573.4,-3494.52
160,1.0,0.461,0.531,0.487,0.478,13.11,9.63,1610.96,-4518.4,18480.8,-202.48,1685.4,-2639.52
180,1.0,0.593,1.0,0.571,0.38,13.54,7.84,2366.96,-5582.4,18572.8,-1024.48,-332.6,-2746.52
200,1.0,0.578,1.0,0.538,0.38,14.19,6.54,766.96,-5330.4,20060.8,-214.48,-356.6,-2059.52
221,1.0,0.64,0.971,0.577,0.282,14.7,5.3,-437.04,-6438.4,21132.8,933.52,-1964.6,0.48
239,1.0,0.687,0.971,0.577,0.478,14.78,4.33,-237.04,-7598.4,22092.8,3520.52,-3415.6,3632.48
260,1.0,0.687,0.092,0.656,0.527,14.96,3.65,-337.04,-8330.4,23028.8,5562.52,-2073.6,4914.48
279,1.0,0.719,0.897,0.713,0.478,15.01,3.51,1630.96,-6990.4,22592.8,6899.52,-446.6,6349.48
300,1.0,0.758,0.238,0.719,0.331,15.81,3.98,86.96,-4366.4,23560.8,7026.52,3160.4,6583.48
319,1.0,0.844,1.0,0.736,0.772,16.94,4.3,-1553.04,-3690.4,23168.8,5245.52,3867.4,7718.48
340,1.0,0.875,1.0,0.815,0.429,17.91,5.31,194.96,-998.4,21140.8,6188.52,4452.4,9244.48
359,1.0,0.922,1.0,0.821,0.282,19.41,6.89,-73.04,1321.6,19788.8,6911.52,7901.4,8933.48
380,1.0,1.0,1.0,0.843,0.919,21.4,8.49,-753.04,3289.6,19136.8,4806.52,11304.4,8066.48
400,1.0,1.0,1.0,1.0,0.674,23.59,10.11,-2041.04,4261.6,17680.8,3436.52,11568.4,7748.48
420,1.0,1.0,0.971,1.0,0.968,25.58,11.55,-861.04,3253.6,16996.8,3772.52,11762.4,7531.48
440,1.0,1.0,1.0,1.0,0.87,27.85,13.24,-1941.04,3321.6,16148.8,5369.52,12854.4,7472.48
460,1.0,1.0,0.897,1.0,0.723,30.22,15.51,-3981.04,4021.6,15708.8,8793.52,12243.4,5722.48
480,1.0,1.0,1.0,1.0,1.0,32.29,18.27,-3305.04,5525.6,14676.8,10232.52,11822.4,7233.48
500,0.776,1.0,1.0,1.0,0.919,34.51,21.1,-2653.04,4525.6,12924.8,11234.52,12882.4,7507.48
520,0.505,1.0,1.0,1.0,1.0,36.82,24.08,-3141.04,4689.6,12164.8,12178.52,13414.4,6623.48
540,0.439,1.0,1.0,0.996,1.0,39.04,27.36,-3585.04,5461.6,10860.8,12692.52,12909.4,7246.48
560,0.463,1.0,1.0,1.0,0.968,41.03,30.42,-4161.04,5093.6,10504.8,12260.52,11069.4,6635.48
580,0.524,1.0,0.0,1.0,1.0,42.5,33.24,-5077.04,6105.6,10116.8,9885.52,7982.4,4686.48
600,0.863,1.0,1.0,1.0,1.0,43.3,35.35,-4733.04,5189.6,9984.8,6846.52,3424.4,2655.48
620,0.879,1.0,1.0,1.0,1.0,43.43,36.98,-3249.04,3181.6,9288.8,5866.52,-1628.6,2032.48
639,0.974,1.0,1.0,1.0,0.919,43.13,38.94,-2613.04,3269.6,9048.8,8161.52,-4057.6,1485.48
660,1.0,1.0,1.0,1.0,1.0,42.4,41.66,-685.04,4525.6,8724.8,11774.52,-3939.6,1223.48
679,1.0,1.0,1.0,1.0,1.0,41.28,44.46,-497.04,6929.6,9652.8,12210.52,-4308.6,1414.48
700,1.0,1.0,1.0,1.0,1.0,39.84,46.42,-325.04,7081.6,9736.8,7389.52,-6548.6,-190.52
720,1.0,1.0,1.0,1.0,1.0,38.17,47.25,634.96,6329.6,9816.8,1023.52,-7837.6,-2472.52
740,1.0,1.0,1.0,1.0,1.0,36.48,47.71,1126.96,6237.6,9408.8,-1834.48,-8097.6,-875.52
760,1.0,1.0,1.0,1.0,1.0,34.67,47.7,3534.96,4129.6,10844.8,-274.48,-6238.6,56.48
779,1.0,1.0,0.0,1.0,1.0,32.58,47.82,3606.96,7001.6,12160.8,-1063.48,-7092.6,1716.48
800,1.0,1.0,1.0,1.0,1.0,30.38,46.85,4138.96,6621.6,12892.8,-7376.48,-7697.6,-31.52
820,1.0,1.0,1.0,1.0,0.38,28.17,44.7,5030.96,2589.6,13240.8,-10353.48,-7882.6,-4437.52
839,1.0,1.0,1.0,1.0,1.0,25.99,42.52,5582.96,29.6,14200.8,-6316.48,-7480.6,-7454.52
860,1.0,1.0,1.0,1.0,1.0,23.65,41.44,6362.96,717.6,14936.8,-12.48,-7748.6,-5451.52
879,1.0,1.0,0.678,1.0,0.919,21.47,40.9,6762.96,1785.6,15788.8,2375.52,-6613.6,-2597.52
900,1.0,0.984,1.0,1.0,1.0,19.5,40.05,6034.96,2033.6,16224.8,99.52,-6833.6,-5071.52
920,1.0,1.0,0.897,1.0,1.0,17.38,38.84,7474.96,1433.6,15876.8,-1903.48,-6398.6,-6716.52
940,1.0,1.0,1.0,1.0,1.0,15.81,37.33,6258.96,745.6,16648.8,-2939.48,-5137.6,-5695.52
960,1.0,1.0,1.0,1.0,1.0,14.38,35.67,5130.96,-586.4,17392.8,-2209.48,-6244.6,-5159.52
979,1.0,1.0,1.0,1.0,0.87,12.9,34.17,5434.96,-698.4,17580.8,-1301.48,-6631.6,-3363.52
1000,1.0,1.0,1.0,1.0,1.0,11.88,32.9,4710.96,-690.4,16964.8,-345.48,-5186.6,-3912.52
1020,1.0,1.0,1.0,0.996,1.0,11.15,32.19,3782.96,661.6,17324.8,1482.52,-4652.6,-4808.52
1040,1.0,1.0,1.0,1.0,1.0,10.35,31.69,3470.96,1485.6,17456.8,1634.52,-5719.6,-3314.52
1060,1.0,1.0,0.971,1.0,1.0,9.55,31.3,4030.96,1741.6,17104.8,1828.52,-5355.6,-2443.52
1080,1.0,1.0,1.0,1.0,0.968,9.08,30.83,3698.96,2525.6,17160.8,158.52,-3776.6,-2566.52
1099,1.0,1.0,1.0,1.0,0.919,8.89,29.92,2798.96,1337.6,17816.8,-1072.48,-3188.6,-1727.52
1119,1.0,1.0,1.0,0.928,0.968,8.67,29.34,2606.96,1209.6,18832.8,1477.52,-3341.6,1237.48
1140,1.0,1.0,1.0,1.0,0.723,8.42,29.22,3422.96,1861.6,18816.8,3751.52,-2718.6,2816.48
1160,1.0,1.0,1.0,1.0,0.87,8.57,29.26,3514.96,3825.6,17648.8,1957.52,-5.6,836.48
1180,1.0,1.0,1.0,1.0,0.723,9.12,28.75,2218.96,3385.6,17160.8,-1639.48,1002.4,226.48
1200,1.0,1.0,1.0,1.0,1.0,9.53,28.25,1978.96,2189.6,17624.8,-30.48,-201.6,1576.48
1220,1.0,0.93,1.0,1.0,1.0,9.77,28.29,2810.96,3253.6,17420.8,2178.52,-172.6,2631.48
1240,1.0,1.0,0.0,1.0,0.772,10.21,28.31,2646.96,3661.6,16644.8,1129.52,825.4,1543.48
1259,1.0,1.0,1.0,1.0,0.919,10.81,28.01,1694.96,2917.6,16856.8,-65.48,849.4,1591.48
1280,1.0,1.0,1.0,1.0,1.0,11.4,27.59,1158.96,2157.6,17324.8,166.52,378.4,2238.48
1300,1.0,1.0,1.0,1.0,0.674,12.05,27.14,1666.96,1513.6,16808.8,492.52,1132.4,2396.48
1319,1.0,1.0,1.0,1.0,1.0,13.08,26.36,526.96,721.6,16880.8,-879.48,2558.4,1879.48
1340,1.0,1.0,0.897,1.0,1.0,14.33,25.14,-521.04,-470.4,17300.8,-2351.48,3135.4,3017.48
1360,1.0,1.0,1.0,1.0,1.0,15.46,23.69,-981.04,-2222.4,18156.8,-1621.48,2581.4,4986.48
1380,1.0,1.0,1.0,1.0,0.968,16.6,22.52,-593.04,-1978.4,18008.8,-533.48,3265.4,7223.48
1400,1.0,1.0,1.0,1.0,0.429,17.9,21.29,-537.04,-1638.4,17760.8,-1733.48,4684.4,8391.48
1420,1.0,1.0,1.0,0.979,1.0,19.23,19.92,-1161.04,-2130.4,18460.8,-2348.48,5031.4,9823.48
1440,1.0,1.0,1.0,0.911,0.968,20.47,18.63,-341.04,-1710.4,18732.8,-2685.48,5818.4,11799.48
1460,1.0,1.0,1.0,1.0,1.0,21.74,17.35,322.96,-1138.4,18720.8,-3766.48,7238.4,12970.48
1480,1.0,1.0,0.0,1.0,1.0,23.06,15.89,1038.96,-1702.4,18104.8,-4786.48,8465.4,13431.48
1499,1.0,1.0,1.0,0.9,0.87,24.37,14.38,1782.96,-1814.4,17268.8,-5665.48,9331.4,13970.48
1520,1.0,1.0,1.0,0.973,0.968,25.36,12.9,3114.96,-1098.4,17360.8,-6962.48,9391.4,15273.48
1540,1.0,1.0,1.0,0.996,0.968,26.24,11.39,4694.96,-702.4,16140.8,-8640.48,10860.4,15493.48
1559,1.0,1.0,1.0,0.894,0.821,27.69,9.72,2790.96,-698.4,15612.8,-10493.48,12298.4,15002.48
1580,1.0,1.0,0.0,0.821,1.0,28.93,8.14,1798.96,-1666.4,17660.8,-8534.48,10981.4,17511.48
1600,1.0,1.0,1.0,0.996,0.282,29.34,7.29,3818.96,-394.4,19092.8,-5329.48,8704.4,20375.48
1620,1.0,1.0,1.0,1.0,1.0,29.12,6.89,7074.96,2469.6,19252.8,-5819.48,8658.4,20903.48
1640,1.0,1.0,1.0,0.99,0.919,29.15,6.28,7730.96,3605.6,18224.8,-9222.48,11232.4,19506.48
1660,1.0,1.0,1.0,1.0,1.0,29.54,5.31,6418.96,2621.6,18388.8,-10878.48,12362.4,18562.48
1680,1.0,1.0,1.0,1.0,0.968,29.79,4.38,5990.96,2269.6,18460.8,-10654.48,11071.4,19073.48
1700,1.0,1.0,1.0,0.996,1.0,29.65,3.77,6742.96,2533.6,17572.8,-9593.48,9566.4,19749.48
1720,1.0,1.0,1.0,1.0,0.919,29.48,3.54,6314.96,3085.6,17676.8,-7848.48,8908.4,19811.48
1740,1.0,1.0,1.0,1.0,0.772,28.95,3.53,7318.96,2877.6,17500.8,-6411.48,7783.4,19560.48
1759,1.0,1.0,1.0,0.996,0.527,28.19,3.76,8434.96,2997.6,18120.8,-4704.48,7507.4,19471.48
1780,1.0,1.0,1.0,1.0,0.723,27.38,4.16,8798.96,3837.6,17776.8,-4725.48,7543.4,19104.48
1800,1.0,1.0,1.0,1.0,0.674,26.51,4.68,8474.96,4825.6,17356.8,-5062.48,6611.4,18819.48
1820,1.0,1.0,1.0,0.99,0.527,25.29,5.16,9066.96,5057.6,17524.8,-5501.48,4730.4,18061.48
1840,1.0,1.0,1.0,0.996,0.821,23.84,5.69,10502.96,4361.6,17668.8,-4373.48,4611.4,16498.48
1860,1.0,1.0,1.0,1.0,1.0,22.57,6.5,10694.96,4369.6,16940.8,-2824.48,5861.4,15025.48
1880,1.0,1.0,1.0,0.99,0.723,21.37,7.51,9778.96,6713.6,15948.8,-4279.48,4958.4,14427.48
1900,1.0,1.0,1.0,0.99,0.772,19.98,8.2,9498.96,6589.6,16876.8,-5574.48,2943.4,14248.48
1920,1.0,1.0,1.0,0.894,0.87,18.3,9.33,10586.96,6397.6,17240.8,-2065.48,1847.4,13324.48
1939,1.0,1.0,0.0,1.0,0.968,16.77,10.9,10962.96,5993.6,16824.8,1375.52,2996.4,12539.48
1960,1.0,1.0,1.0,0.996,0.821,15.41,12.54,9806.96,6949.6,16664.8,1181.52,2407.4,12179.48
1979,1.0,1.0,1.0,1.0,1.0,14.03,14.25,9490.96,7329.6,15892.8,1233.52,1574.4,11945.48
2000,1.0,1.0,1.0,1.0,0.87,12.54,16.12,10030.96,7153.6,14680.8,1993.52,1287.4,10463.48
2019,1.0,1.0,1.0,0.979,0.968,11.12,18.02,9870.96,6509.6,14780.8,3379.52,1230.4,8840.48
2040,1.0,1.0,1.0,1.0,0.625,9.85,20.29,9478.96,6877.6,15668.8,6755.52,1346.4,8401.48
2060,1.0,1.0,1.0,1.0,0.723,8.61,22.4,8950.96,8609.6,15556.8,4783.52,430.4,7353.48
2080,1.0,1.0,1.0,1.0,0.968,7.29,23.87,9194.96,8469.6,14744.8,427.52,-92.6,5456.48
2100,1.0,1.0,1.0,1.0,1.0,6.02,24.85,8938.96,7817.6,14592.8,-2123.48,-418.6,3422.48
2120,1.0,1.0,1.0,0.736,0.919,4.83,25.81,8134.96,7597.6,16180.8,-698.48,-1217.6,2718.48
2139,1.0,1.0,1.0,1.0,0.919,3.53,27.04,8542.96,7861.6,16416.8,1382.52,-1889.6,2211.48
2159,1.0,1.0,1.0,0.962,0.478,2.39,28.1,8990.96,7277.6,15792.8,647.52,-635.6,966.48
2180,1.0,1.0,1.0,1.0,0.772,1.65,28.75,8446.96,5869.6,15584.8,-837.48,1218.4,-262.52
2200,1.0,1.0,1.0,0.86,1.0,1.2,29.24,7246.96,5437.6,15848.8,-1081.48,1539.4,-679.52
2219,1.0,1.0,1.0,0.985,0.821,0.77,29.79,6542.96,4609.6,15584.8,79.52,609.4,-60.52
2239,1.0,1.0,1.0,1.0,0.38,0.26,30.37,6758.96,4509.6,15208.8,269.52,93.4,290.48
2260,1.0,1.0,1.0,1.0,0.821,-0.28,30.77,7018.96,4601.6,14752.8,-1197.48,91.4,269.48
2279,1.0,1.0,1.0,1.0,0.968,-0.7,30.78,6802.96,5049.6,15584.8,-3646.48,419.4,-292.52
2300,1.0,1.0,1.0,0.985,0.772,-1.02,30.64,6078.96,4677.6,16136.8,-3926.48,125.4,-182.52
2320,1.0,1.0,1.0,0.894,0.0,-1.42,30.58,6354.96,4177.6,16104.8,-2967.48,-276.6,200.48
2340,1.0,1.0,1.0,0.883,0.968,-1.84,30.71,7126.96,4117.6,16200.8,-1548.48,382.4,400.48
2360,1.0,1.0,1.0,0.934,0.772,-2.0,31.0,6854.96,5065.6,15656.8,-1757.48,1635.4,-237.52
2379,1.0,1.0,1.0,1.0,0.919,-1.92,31.05,5566.96,5337.6,16336.8,-3093.48,1824.4,-700.52
2400,1.0,1.0,1.0,0.588,0.87,-1.97,31.12,5562.96,4641.6,17184.8,-1765.48,840.4,-303.52
2420,1.0,1.0,1.0,0.973,1.0,-2.21,31.5,6286.96,4597.6,17492.8,586.52,392.4,178.48
2440,1.0,1.0,0.092,0.962,1.0,-2.5,32.06,6702.96,5653.6,17552.8,1034.52,392.4,255.48
2460,1.0,1.0,1.0,0.996,0.919,-2.64,32.46,6482.96,5901.6,17608.8,-105.48,1093.4,-296.52
2479,1.0,1.0,1.0,0.922,0.821,-2.66,32.7,6142.96,5297.6,17520.8,-571.48,1439.4,-708.52
2500,1.0,0.977,1.0,0.951,0.723,-2.71,32.96,6118.96,4945.6,16944.8,-391.48,1067.4,-851.52
2519,1.0,1.0,1.0,1.0,0.772,-2.71,33.27,6018.96,5033.6,16532.8,-201.48,1172.4,-1125.52
2540,1.0,1.0,1.0,0.962,0.87,-2.64,33.58,5770.96,4849.6,15948.8,-376.48,1272.4,-1184.52
2560,1.0,0.969,1.0,0.962,0.674,-2.55,33.71,5678.96,3817.6,15748.8,-584.48,1188.4,-973.52
2579,1.0,1.0,0.678,0.962,0.772,-2.55,33.77,5522.96,3349.6,15992.8,-258.48,264.4,-576.52
2601,1.0,1.0,1.0,0.956,1.0,-2.71,34.08,5850.96,4197.6,15856.8,453.52,-374.6,-520.52
2619,1.0,1.0,1.0,0.968,0.723,-2.86,34.39,5806.96,4401.6,16280.8,660.52,-398.6,-432.52
2641,1.0,0.797,1.0,1.0,0.87,-3.03,34.74,6358.96,4393.6,16080.8,934.52,-70.6,-504.52
2659,1.0,1.0,1.0,1.0,0.723,-3.15,35.03,6390.96,4417.6,16104.8,586.52,284.4,-452.52
2680,1.0,1.0,1.0,1.0,0.919,-3.22,35.28,6094.96,4281.6,16112.8,612.52,149.4,-398.52
2700,1.0,1.0,1.0,0.951,0.527,-3.31,35.54,6174.96,4517.6,15884.8,435.52,15.4,-563.52
2720,1.0,1.0,1.0,0.99,0.723,-3.45,35.7,6122.96,4865.6,16020.8,-470.48,-359.6,-535.52
2740,1.0,1.0,1.0,0.985,0.821,-3.57,35.75,6146.96,4781.6,16232.8,-934.48,-383.6,-715.52
2760,1.0,0.734,0.0,0.877,1.0,-3.67,35.85,6098.96,4893.6,16648.8,-400.48,-288.6,-709.52
2780,1.0,1.0,1.0,0.962,0.723,-3.69,35.97,6222.96,4809.6,16648.8,-91.48,306.4,-835.52
2800,1.0,1.0,1.0,1.0,0.772,-3.62,36.04,5822.96,4549.6,16620.8,-162.48,344.4,-853.52
2819,1.0,1.0,1.0,0.888,0.331,-3.6,36.11,5882.96,4465.6,16540.8,-53.48,60.4,-779.52
2840,1.0,1.0,1.0,1.0,0.527,-3.58,36.21,6010.96,4897.6,16436.8,-327.48,211.4,-830.52
2860,1.0,1.0,0.0,0.985,0.282,-3.45,36.23,5846.96,4201.6,16340.8,-192.48,595.4,-759.52
2880,1.0,1.0,1.0,0.917,0.0,-3.32,36.29,5598.96,4217.6,16264.8,80.52,304.4,-599.52
2899,1.0,1.0,1.0,0.956,0.0,-3.27,36.36,5518.96,4261.6,16284.8,158.52,-326.6,-304.52
2919,1.0,1.0,1.0,0.968,0.723,-3.27,36.42,5754.96,4365.6,16300.8,51.52,-451.6,-371.52
2940,1.0,1.0,1.0,1.0,0.0,-3.24,36.43,5914.96,4489.6,16400.8,-323.48,-118.6,-546.52
2960,1.0,1.0,1.0,1.0,0.919,-3.15,36.39,5770.96,4377.6,16812.8,-257.48,170.4,-379.52
2979,1.0,1.0,1.0,0.973,0.0,-3.06,36.33,5726.96,4553.6,16820.8,-513.48,73.4,-366.52
