timestamp,flex_1,flex_2,flex_3,flex_4,flex_5,kalman_pitch,kalman_roll,acc_x,acc_y,acc_z,gyro_x,gyro_y,gyro_z
0,0.0,0.001,0.0,1.0,0.0,-8.15,45.83,-394.32,778.16,16895.52,859.58,-170.58,1534.34
20,0.0,0.012,0.0,1.0,0.0,-22.71,24.21,-294.32,926.16,17171.52,1166.58,-66.58,1601.34
40,0.0,0.0,0.0,1.0,0.292,-29.53,13.77,61.68,446.16,17315.52,1279.58,-308.58,1638.34
60,0.0,0.0,0.0,1.0,0.0,-33.67,7.55,-146.32,310.16,16951.52,1537.58,-795.58,1337.34
79,0.0,0.0,0.0,1.0,0.0,-36.77,4.0,93.68,898.16,16643.52,1999.58,-795.58,829.34
100,0.0,0.0,0.118,1.0,0.0,-39.07,1.68,349.68,1138.16,16671.52,2171.58,-248.58,439.34
119,0.0,0.0,0.0,1.0,0.0,-40.66,0.19,49.68,1470.16,16791.52,2147.58,291.42,193.34
140,0.0,0.0,0.0,1.0,0.0,-41.71,-1.24,-366.32,1090.16,17075.52,1862.58,395.42,394.34
159,0.0,0.0,0.0,1.0,0.0,-42.63,-2.71,-498.32,558.16,16919.52,1798.58,-64.58,542.34
180,0.0,0.0,0.118,1.0,0.005,-43.51,-4.13,-302.32,126.16,16735.52,2220.58,-184.58,448.34
200,0.0,0.075,0.0,1.0,0.0,-44.16,-5.2,-814.32,334.16,16815.52,2440.58,-168.58,443.34
219,0.0,0.0,0.0,1.0,0.005,-44.47,-5.94,-810.32,406.16,18027.52,2716.58,17.42,597.34
240,0.0,0.012,0.0,1.0,0.0,-44.72,-6.49,-198.32,266.16,18815.52,3302.58,209.42,573.34
260,0.0,0.012,0.118,1.0,0.0,-44.71,-6.81,-822.32,254.16,19623.52,4149.58,108.42,820.34
280,0.0,0.001,0.0,1.0,0.005,-44.65,-6.67,-686.32,874.16,19655.52,5762.58,913.42,952.34
300,0.0,0.0,0.0,1.0,0.388,-44.47,-6.29,-642.32,838.16,19915.52,7536.58,1578.42,1678.34
320,0.0,0.054,0.0,1.0,0.0,-44.0,-5.56,-246.32,1526.16,20735.52,8583.58,3610.42,1815.34
340,0.0,0.0,0.0,1.0,0.0,-43.35,-4.75,1.68,2650.16,20583.52,7341.58,5657.42,1563.34
360,0.0,0.0,0.0,1.0,0.0,-42.49,-4.9,-66.32,2230.16,20179.52,1885.58,7672.42,1047.34
380,0.0,0.022,0.0,1.0,0.005,-41.14,-5.32,-486.32,2402.16,21663.52,-504.42,9815.42,600.34
400,0.0,0.096,0.0,1.0,0.292,-38.66,-3.86,-418.32,118.16,29771.52,14561.58,13595.42,279.34
420,0.0,0.001,0.0,1.0,0.0,-36.78,-1.39,85.68,2210.16,21375.52,20543.58,16038.42,1874.34
440,0.0,0.001,0.0,1.0,0.0,-34.5,0.86,-218.32,2934.16,18991.52,19028.58,21471.42,512.34
460,0.0,0.0,0.0,1.0,0.0,-31.32,2.32,-754.32,2918.16,18499.52,14555.58,28707.42,-3916.66
480,0.0,0.043,0.0,0.0,0.0,-26.94,2.11,-3110.32,9194.16,23383.52,-5245.42,31529.42,-11056.66
500,0.0,0.0,0.0,0.0,0.579,-22.14,0.65,-6834.32,4846.16,25943.52,-8021.42,31529.42,-8451.66
520,0.971,0.022,0.0,0.0,0.0,-17.23,-0.15,-9090.32,2194.16,27151.52,-826.42,31529.42,-6250.66
540,0.971,0.012,0.118,0.0,0.579,-12.53,0.15,-9882.32,2998.16,26567.52,5563.58,31193.42,-3940.66
560,1.0,0.001,0.0,0.0,0.292,-8.29,0.76,-10546.32,3678.16,25391.52,7017.58,29374.42,-2660.66
580,1.0,0.075,0.0,0.167,0.77,-4.41,1.2,-11270.32,5102.16,25451.52,4364.58,27705.42,-1788.66
600,1.0,0.012,0.0,0.0,0.0,-0.78,1.19,-12398.32,4834.16,25975.52,1678.58,26200.42,-1315.66
620,1.0,0.022,0.0,0.235,0.005,2.69,1.0,-13194.32,4478.16,25587.52,820.58,25639.42,-480.66
640,1.0,0.033,0.0,0.356,0.005,6.1,0.82,-14322.32,4178.16,25307.52,1128.58,25292.42,582.34
660,1.0,0.033,0.0,0.579,0.0,9.3,0.8,-15382.32,4426.16,25159.52,1808.58,23973.42,2191.34
680,1.0,0.054,0.0,0.51,0.0,12.25,0.94,-15822.32,4558.16,24111.52,2555.58,22759.42,3139.34
700,1.0,0.043,0.0,0.527,0.0,15.2,1.17,-16526.32,4842.16,22595.52,2704.58,22713.42,3641.34
720,0.971,0.075,0.0,0.476,1.0,18.1,1.34,-17398.32,4574.16,22655.52,2690.58,22489.42,4184.34
740,0.971,0.001,0.0,0.545,0.196,21.03,1.71,-18038.32,5098.16,21563.52,3172.58,22670.42,4893.34
760,1.0,0.075,0.0,0.613,0.292,23.81,2.16,-18766.32,5342.16,21343.52,3422.58,21722.42,4980.34
780,1.0,0.054,0.0,1.0,0.292,26.46,2.63,-18610.32,5470.16,20107.52,3229.58,21619.42,4984.34
800,1.0,0.054,0.0,0.201,0.0,29.18,2.85,-19006.32,5122.16,18387.52,1703.58,21393.42,4981.34
820,1.0,0.043,0.0,1.0,0.196,31.77,2.85,-19658.32,4826.16,17951.52,585.58,20350.42,5441.34
840,0.0,0.054,0.0,1.0,0.292,34.52,3.06,-20462.32,4942.16,15931.52,1079.58,19425.42,5955.34
860,0.0,0.075,0.0,1.0,0.196,37.27,3.48,-20046.32,4926.16,14239.52,1845.58,19075.42,5785.34
880,0.0,0.096,0.0,1.0,0.005,40.13,4.51,-21018.32,5750.16,12803.52,2556.58,17821.42,5600.34
900,0.0,0.096,0.0,1.0,0.388,42.8,5.88,-21754.32,6294.16,13407.52,4324.58,17835.42,4653.34
920,0.0,0.096,1.0,1.0,1.0,45.78,7.79,-22246.32,6826.16,11867.52,4953.58,18780.42,4095.34
940,0.0,0.075,0.0,1.0,0.0,48.56,9.85,-21898.32,7182.16,10867.52,3529.58,17886.42,2743.34
960,0.0,0.022,0.0,1.0,0.962,51.14,11.73,-22546.32,7826.16,10619.52,498.58,17275.42,1839.34
980,0.0,0.075,0.0,1.0,0.0,53.54,12.89,-22754.32,7046.16,10407.52,-2360.42,15755.42,593.34
1000,0.0,0.075,0.0,1.0,0.196,55.79,13.65,-23582.32,6402.16,10559.52,-2500.42,14404.42,492.34
1020,0.0,0.096,1.0,1.0,0.77,57.59,15.25,-23170.32,7278.16,10031.52,-638.42,12754.42,717.34
1040,0.0,0.096,0.0,1.0,0.005,59.41,17.26,-23954.32,7410.16,9359.52,292.58,12337.42,1094.34
1060,0.0,0.096,0.0,1.0,0.292,60.88,19.22,-24334.32,7506.16,9355.52,291.58,10487.42,1004.34
1080,0.0,0.085,0.0,1.0,0.0,62.21,21.31,-24442.32,7558.16,8903.52,17.58,9590.42,657.34
1100,0.0,0.106,0.0,1.0,0.196,63.27,23.33,-24642.32,7842.16,8759.52,-974.42,8286.42,106.34
1120,0.0,0.106,0.0,1.0,0.292,64.26,25.07,-25010.32,7402.16,8711.52,-1555.42,7408.42,-88.66
1140,0.0,0.054,0.0,1.0,1.0,65.04,26.96,-25334.32,7926.16,8831.52,-867.42,6860.42,289.34
1160,0.0,0.096,0.0,1.0,0.675,65.77,28.96,-25446.32,7742.16,8563.52,-69.42,6287.42,612.34
1180,0.0,0.085,0.0,1.0,0.0,66.45,31.19,-25370.32,7666.16,7947.52,-63.42,5720.42,539.34
1200,0.0,0.117,0.0,1.0,0.0,66.94,33.4,-25566.32,8126.16,7895.52,-636.42,5171.42,328.34
1220,0.0,0.138,0.0,1.0,0.388,67.28,35.37,-25834.32,8398.16,7999.52,-1708.42,4578.42,190.34
1240,0.0,0.075,0.0,1.0,1.0,67.57,37.22,-26298.32,8082.16,7799.52,-2257.42,3552.42,221.34
1260,0.254,0.075,0.0,1.0,0.0,67.81,39.15,-25990.32,7818.16,7563.52,-1672.42,2982.42,398.34
1280,0.971,0.117,0.0,1.0,0.675,67.95,41.13,-26058.32,8286.16,7735.52,-861.42,3035.42,550.34
1300,0.0,0.043,0.0,1.0,0.579,68.03,42.99,-26038.32,8142.16,7731.52,-824.42,2566.42,411.34
1320,1.0,0.096,0.0,1.0,0.388,68.01,44.81,-26278.32,8534.16,7919.52,-461.42,2307.42,539.34
1340,1.0,0.127,0.0,1.0,0.005,67.98,46.57,-26370.32,8614.16,7835.52,-765.42,2207.42,556.34
1360,0.124,0.054,0.0,1.0,0.388,68.04,48.26,-26406.32,8046.16,7539.52,-1031.42,1989.42,394.34
1380,0.971,0.148,0.0,1.0,1.0,68.05,49.88,-26642.32,8382.16,7835.52,-344.42,2151.42,340.34
1400,0.971,0.096,0.0,1.0,0.579,68.03,51.55,-26878.32,8826.16,7883.52,44.58,2301.42,515.34
1420,0.971,0.148,0.0,1.0,0.005,68.06,53.46,-26614.32,8430.16,7007.52,-474.42,1969.42,566.34
1440,1.0,0.054,0.0,1.0,0.292,68.15,55.12,-26806.32,8222.16,7255.52,-443.42,2159.42,413.34
1460,1.0,0.138,0.0,1.0,0.962,68.22,56.63,-27106.32,8346.16,7595.52,181.58,2109.42,349.34
1480,1.0,0.127,0.0,1.0,0.0,68.19,58.34,-27058.32,8646.16,7279.52,565.58,1774.42,286.34
1500,0.971,0.096,0.0,1.0,0.0,68.12,60.15,-26826.32,8738.16,6903.52,271.58,1587.42,268.34
1520,1.0,0.096,0.0,1.0,0.1,68.08,61.93,-26958.32,8606.16,6623.52,-263.42,1450.42,197.34
1540,0.971,0.148,0.0,1.0,0.388,68.09,63.46,-26890.32,8314.16,6867.52,-271.42,1500.42,193.34
1559,0.971,0.075,1.0,1.0,0.388,68.06,65.07,-27090.32,8498.16,6715.52,4.58,1305.42,209.34
1580,0.971,0.106,0.118,1.0,0.388,67.99,66.64,-27150.32,8458.16,6639.52,-18.42,945.42,317.34
1600,0.971,0.148,0.0,1.0,0.483,67.87,68.2,-27218.32,8638.16,6543.52,-10.42,703.42,435.34
1620,0.971,0.117,0.0,1.0,0.292,67.75,69.72,-26978.32,8398.16,6411.52,-266.42,398.42,441.34
1640,0.906,0.117,0.0,1.0,0.675,67.63,71.22,-26682.32,8350.16,6415.52,215.58,475.42,364.34
1660,0.971,0.096,0.0,1.0,0.292,67.51,72.48,-27110.32,8526.16,6895.52,665.58,511.42,367.34
1680,0.971,0.148,0.0,1.0,0.675,67.34,73.99,-26974.32,8650.16,6263.52,440.58,237.42,304.34
1700,0.971,0.096,0.118,1.0,0.005,67.19,75.27,-27214.32,8542.16,6455.52,108.58,112.42,223.34
1719,0.971,0.085,0.0,1.0,0.196,67.08,76.61,-26906.32,8322.16,6259.52,321.58,118.42,85.34
1739,0.971,0.117,0.0,1.0,0.483,66.99,77.83,-27070.32,8522.16,6463.52,609.58,371.42,64.34
1759,0.971,0.033,0.0,1.0,0.196,66.87,78.97,-27286.32,8570.16,6503.52,578.58,109.42,59.34
1779,0.971,0.138,0.0,1.0,0.0,66.77,80.21,-27330.32,8442.16,6147.52,364.58,-54.58,79.34
1799,0.906,0.085,0.0,1.0,0.0,66.67,81.25,-27178.32,8386.16,6399.52,441.58,-18.58,-0.66
1819,0.906,0.127,0.0,1.0,0.005,66.59,82.26,-27306.32,8366.16,6431.52,658.58,-35.58,-21.66
1840,0.971,0.054,0.118,1.0,0.0,66.52,83.12,-27466.32,8466.16,6579.52,522.58,-15.58,-59.66
1859,0.971,0.054,0.0,1.0,0.0,66.43,83.87,-27394.32,8286.16,6687.52,636.58,-270.58,0.34
1880,0.971,0.075,0.0,1.0,0.866,66.35,84.79,-27018.32,8194.16,6515.52,1429.58,-261.58,-45.66
1900,0.971,0.054,0.0,1.0,0.675,66.31,85.58,-27158.32,8438.16,6775.52,1766.58,193.42,-174.66
1920,0.906,0.085,0.0,1.0,0.388,66.24,86.28,-27274.32,8634.16,6843.52,1497.58,228.42,-150.66
1940,0.84,0.117,0.706,1.0,0.005,66.21,86.91,-27454.32,8518.16,6751.52,1088.58,168.42,-168.66
1960,0.971,0.054,0.0,1.0,0.0,66.2,87.69,-27470.32,8550.16,6319.52,796.58,251.42,-230.66
1980,0.971,0.085,0.118,1.0,0.0,66.22,88.48,-27194.32,8550.16,6123.52,466.58,495.42,-280.66
1999,0.971,0.106,0.0,1.0,0.196,66.28,89.13,-27326.32,8366.16,6167.52,45.58,514.42,-354.66
2020,0.84,0.075,0.0,1.0,0.196,66.32,89.7,-27354.32,8394.16,6335.52,307.58,440.42,-232.66
2040,0.971,0.117,0.118,1.0,0.0,66.34,90.26,-27526.32,8486.16,6303.52,299.58,270.42,-105.66
2059,0.971,0.127,0.0,1.0,0.866,66.34,90.81,-27298.32,8406.16,6187.52,149.58,134.42,-5.66
2079,0.971,0.085,0.0,1.0,0.675,66.34,91.39,-27198.32,8334.16,6055.52,55.58,7.42,-5.66
2099,0.906,0.085,0.0,1.0,0.005,66.34,91.84,-27334.32,8366.16,6255.52,136.58,83.42,71.34
2119,0.971,0.085,0.0,1.0,0.0,66.34,92.21,-27290.32,8310.16,6375.52,208.58,-62.58,223.34
2140,0.906,0.117,0.0,1.0,0.388,66.32,92.55,-27202.32,8258.16,6407.52,362.58,-187.58,382.34
2160,0.971,0.0,0.118,1.0,0.0,66.3,92.91,-27130.32,8438.16,6323.52,288.58,-68.58,265.34
2180,0.971,0.033,0.0,1.0,0.196,66.29,93.13,-27154.32,8390.16,6395.52,-171.42,-8.58,102.34
2200,0.971,0.096,0.0,1.0,0.292,66.29,93.35,-27070.32,8338.16,6351.52,-260.42,-41.58,163.34
2219,0.971,0.085,0.0,1.0,0.0,66.31,93.54,-27214.32,8294.16,6403.52,-96.42,-4.58,122.34
2239,0.906,0.127,0.0,1.0,0.005,66.33,93.75,-27306.32,8410.16,6339.52,-62.42,49.42,59.34
2260,0.971,0.096,0.0,1.0,0.388,66.36,94.0,-27278.32,8286.16,6187.52,-218.42,-11.58,79.34
2280,0.971,0.085,0.0,1.0,0.005,66.37,94.19,-27182.32,8422.16,6279.52,-202.42,17.42,139.34
2299,0.971,0.148,0.0,1.0,0.388,66.39,94.34,-27254.32,8450.16,6327.52,-134.42,36.42,196.34
2319,0.971,0.085,0.118,1.0,0.0,66.42,94.47,-27314.32,8350.16,6375.52,-13.42,25.42,261.34
2340,0.971,0.127,0.0,1.0,0.0,66.42,94.68,-27270.32,8506.16,6279.52,239.58,-47.58,330.34
2359,0.906,0.127,0.0,1.0,0.0,66.4,94.88,-27166.32,8714.16,6259.52,185.58,54.42,290.34
2379,0.906,0.148,0.0,1.0,0.675,66.37,94.98,-27226.32,8762.16,6387.52,74.58,23.42,179.34
2399,0.906,0.0,0.118,1.0,0.292,66.36,95.04,-27166.32,8682.16,6451.52,127.58,28.42,144.34
2419,0.971,0.117,0.0,1.0,0.579,66.34,95.14,-27106.32,8710.16,6343.52,86.58,30.42,69.34
2439,0.84,0.117,0.0,1.0,0.0,66.31,95.26,-27118.32,8702.16,6323.52,272.58,-57.58,39.34
2460,0.906,0.096,0.0,1.0,0.1,66.27,95.37,-26954.32,8770.16,6323.52,291.58,-37.58,-163.66
2480,0.84,0.054,0.0,1.0,0.866,66.24,95.55,-27082.32,8770.16,6159.52,358.58,-49.58,-436.66
2500,0.971,0.075,0.0,1.0,0.77,66.19,95.73,-27074.32,8814.16,6219.52,609.58,-144.58,-481.66
2520,0.906,0.075,0.0,1.0,0.0,66.17,95.85,-27134.32,8582.16,6287.52,675.58,-248.58,-507.66
2540,0.906,0.117,0.0,1.0,0.005,66.19,95.96,-27194.32,8438.16,6319.52,842.58,-253.58,-478.66
2560,0.906,0.054,0.118,1.0,0.579,66.22,96.06,-27222.32,8362.16,6267.52,729.58,-272.58,-378.66
2580,0.906,0.054,0.0,1.0,0.0,66.27,96.08,-27234.32,8318.16,6295.52,439.58,-175.58,-360.66
2600,0.906,0.054,0.0,1.0,0.483,66.33,96.05,-27250.32,8214.16,6359.52,471.58,-244.58,-200.66
2620,0.906,0.085,0.0,1.0,0.388,66.41,96.01,-27342.32,8162.16,6339.52,358.58,-169.58,-128.66
2640,0.906,0.043,0.0,1.0,0.483,66.48,95.91,-27422.32,8338.16,6415.52,216.58,-109.58,-11.66
2660,0.906,0.012,0.0,1.0,0.0,66.55,95.85,-27326.32,8282.16,6339.52,266.58,-178.58,165.34
2679,0.971,0.075,0.0,1.0,0.675,66.6,95.76,-27322.32,8454.16,6359.52,182.58,-38.58,277.34
2700,0.906,0.075,0.706,1.0,0.292,66.67,95.67,-27418.32,8390.16,6359.52,205.58,-86.58,366.34
2719,0.906,0.117,0.0,1.0,0.77,66.73,95.62,-27406.32,8478.16,6343.52,442.58,3.42,381.34
2739,0.971,0.022,0.118,1.0,0.0,66.76,95.54,-27238.32,8690.16,6351.52,187.58,14.42,284.34
2759,0.906,0.085,0.118,1.0,0.388,66.8,95.37,-27234.32,8502.16,6443.52,60.58,-24.58,133.34
2779,0.906,0.096,0.0,1.0,0.196,66.86,95.18,-27194.32,8490.16,6479.52,44.58,30.42,49.34
2799,0.971,0.096,0.0,1.0,0.196,66.91,95.0,-27126.32,8526.16,6431.52,5.58,82.42,-26.66
2819,0.971,0.064,0.0,1.0,0.579,66.97,94.81,-27154.32,8446.16,6467.52,48.58,61.42,18.34
2839,0.971,0.054,0.0,1.0,0.388,67.05,94.69,-27106.32,8386.16,6343.52,170.58,94.42,66.34
2859,0.971,0.043,0.0,1.0,0.77,67.12,94.59,-27166.32,8458.16,6347.52,248.58,101.42,74.34
2879,0.971,0.054,0.0,1.0,0.292,67.15,94.44,-27318.32,8618.16,6415.52,214.58,18.42,87.34
2899,0.971,0.043,0.0,1.0,0.0,67.18,94.4,-27114.32,8674.16,6163.52,1.58,41.42,29.34
2919,0.84,0.075,0.0,1.0,0.0,67.22,94.2,-27258.32,8514.16,6423.52,-67.42,-21.58,62.34
2939,0.906,0.075,0.0,1.0,0.0,67.26,94.15,-27182.32,8594.16,6183.52,176.58,-1.58,114.34
2959,0.971,0.043,0.0,1.0,0.388,67.29,94.0,-26938.32,8702.16,6363.52,44.58,203.42,-54.66
2979,0.971,0.085,0.0,1.0,0.0,67.33,93.84,-27258.32,8430.16,6555.52,773.58,-98.58,93.34
