timestamp,flex_1,flex_2,flex_3,flex_4,flex_5,kalman_pitch,kalman_roll,acc_x,acc_y,acc_z,gyro_x,gyro_y,gyro_z
0,1.0,0.201,0.0,0.0,0.0,164.33,56.47,672.8,4780.4,18085.52,-807.64,12184.04,-652.68
20,1.0,0.64,0.0,0.0,1.0,112.84,38.43,8.8,4284.4,17105.52,-1976.64,11847.04,-1173.68
40,1.0,0.927,0.0,0.526,0.0,81.59,26.95,1072.8,3284.4,19205.52,-1498.64,11171.04,-767.68
60,1.0,0.276,1.0,0.0,0.328,61.2,19.8,-1995.2,4148.4,19113.52,-1015.64,9943.04,-1022.68
80,1.0,0.037,0.0,0.0,0.0,46.1,14.19,-1259.2,3408.4,19869.52,-1253.64,7822.04,-1676.68
100,1.0,0.0,0.0,0.0,0.035,34.2,9.1,-1275.2,2352.4,19657.52,-2398.64,4954.04,-1801.68
120,1.0,0.0,0.0,0.0,0.0,24.63,4.52,-799.2,1216.4,20381.52,-3432.64,3273.04,-1626.68
140,1.0,0.235,1.0,0.0,0.0,16.95,-0.53,-1207.2,-943.6,20305.52,-6683.64,2342.04,-103.68
160,1.0,0.263,0.0,0.0,0.0,10.94,-6.25,-1727.2,-4003.6,21125.52,-12154.64,1730.04,1468.32
180,1.0,0.098,0.014,0.0,0.0,5.7,-12.35,-355.2,-7031.6,22201.52,-17260.64,748.04,2209.32
200,0.929,0.126,0.0,0.0,1.0,1.16,-18.67,-2203.2,-8863.6,21501.52,-20866.64,-2063.96,4931.32
220,1.0,0.0,0.417,0.455,0.0,-3.48,-24.39,352.8,-8703.6,21881.52,-21913.64,-3106.96,8691.32
240,0.84,0.146,0.0,0.101,0.0,-8.04,-29.84,996.8,-6579.6,21021.52,-25084.64,-3518.96,11342.32
260,0.67,0.03,0.0,0.0,1.0,-12.36,-36.18,1288.8,-8135.6,19621.52,-31300.64,-4720.96,14363.32
280,0.36,0.0,0.388,1.0,0.0,-16.28,-42.5,2320.8,-10663.6,19469.52,-32382.64,-4801.96,18092.32
300,0.537,0.324,1.0,0.0,1.0,-19.9,-48.47,2724.8,-12007.6,19493.52,-32382.64,-5228.96,21591.32
320,0.415,0.0,0.0,0.0,0.0,-23.28,-54.21,3944.8,-12347.6,18417.52,-32382.64,-4231.96,25601.32
340,0.441,0.181,1.0,0.0,0.504,-26.13,-59.89,4212.8,-14139.6,17117.52,-32382.64,-2615.96,27892.32
360,0.604,0.0,0.0,0.192,0.0,-28.75,-65.5,4296.8,-15207.6,15489.52,-32382.64,-2426.96,28667.32
380,0.517,0.338,1.0,0.283,0.974,-31.27,-71.01,4060.8,-16775.6,14141.52,-32382.64,-3664.96,29079.32
400,0.545,0.057,1.0,0.0,0.0,-34.04,-76.37,4536.8,-15607.6,12469.52,-32382.64,-5475.96,29078.32
420,0.286,0.057,0.0,0.283,0.328,-36.99,-81.73,4576.8,-15659.6,10345.52,-32382.64,-7729.96,28527.32
440,0.71,0.0,0.129,0.0,1.0,-40.38,-87.19,4472.8,-14307.6,7529.52,-32382.64,-11259.96,28773.32
460,0.626,0.167,0.0,0.0,1.0,-44.4,-92.51,4640.8,-13911.6,6401.52,-32382.64,-16805.96,28739.32
480,0.36,0.112,0.964,0.0,0.0,-48.85,-97.95,3900.8,-13531.6,3741.52,-32382.64,-21946.96,29302.32
500,0.507,0.0,0.0,0.0,1.0,-53.78,-103.39,2524.8,-10379.6,2557.52,-32382.64,-26436.96,29275.32
520,0.321,0.0,0.619,0.0,0.0,-58.72,-108.87,1208.8,-10115.6,541.52,-32382.64,-29792.96,28468.32
540,0.494,0.0,0.0,0.0,0.094,-63.71,-114.38,-659.2,-8023.6,-574.48,-32382.64,-32958.96,27313.32
560,0.418,0.0,0.0,0.0,1.0,-68.49,-119.97,-1787.2,-6295.6,-1870.48,-32382.64,-34050.96,25790.32
580,0.438,0.263,0.417,0.091,0.0,-72.37,-125.32,-5819.2,-6123.6,-2218.48,-32382.64,-34050.96,25242.32
600,0.443,0.009,0.0,0.0,0.0,-75.85,-130.53,-7239.2,-4355.6,-1726.48,-32382.64,-34050.96,24327.32
620,0.484,0.0,0.0,0.0,0.094,-79.07,-135.75,-8479.2,-575.6,-982.48,-31112.64,-34050.96,23868.32
640,0.522,0.215,0.216,0.0,0.0,-80.83,-142.81,-12927.2,7176.4,565.52,-30542.64,-34050.96,23929.32
660,0.675,0.0,0.0,0.0,0.0,-82.86,-149.05,-11675.2,4644.4,-2478.48,-32382.64,-34050.96,26945.32
680,0.807,0.03,0.0,0.0,1.0,-83.39,-153.91,-15751.2,2288.4,577.52,-32382.64,-34050.96,24561.32
700,0.952,0.187,0.475,0.718,1.0,-82.32,-156.98,-20599.2,2832.4,2137.52,-23091.64,-34050.96,22427.32
720,0.677,0.0,1.0,0.101,1.0,-81.37,-160.13,-17867.2,5204.4,2845.52,-19241.64,-34050.96,14768.32
740,0.571,0.0,0.245,0.0,0.0,-79.86,-160.35,-14843.2,5760.4,6961.52,-12560.64,-34050.96,8379.32
760,0.555,0.0,0.0,0.0,0.0,-80.66,-151.82,-13463.2,8868.4,14373.52,-3723.64,-34050.96,2236.32
780,0.52,0.0,0.0,0.0,0.0,-82.52,-142.53,-8887.2,12968.4,22401.52,734.36,-34050.96,1826.32
800,0.304,0.037,0.043,0.0,0.0,-84.64,-134.41,-2999.2,13816.4,31849.52,-2770.64,-34050.96,-1968.68
820,0.596,0.078,0.0,0.0,0.0,-86.5,-126.61,2364.8,12832.4,37357.52,-1433.64,-31389.96,-4349.68
840,0.581,0.229,0.0,0.0,1.0,-85.74,-118.48,2528.8,11652.4,37201.52,3585.36,-14268.96,-5458.68
860,0.123,0.0,0.014,0.0,0.0,-81.87,-110.21,-2411.2,11044.4,33121.52,6648.36,5154.04,-7509.68
880,0.197,0.133,1.0,0.0,1.0,-75.14,-101.7,-7899.2,12708.4,30093.52,8507.36,22156.04,-8095.68
900,0.0,0.0,1.0,0.0,0.0,-66.59,-93.63,-13459.2,11924.4,27649.52,7954.36,31484.04,-5937.68
920,0.123,0.023,0.532,0.0,1.0,-57.75,-86.16,-16935.2,10992.4,23885.52,5983.36,31484.04,-4460.68
940,0.0,0.276,0.0,0.0,0.0,-48.39,-79.42,-19231.2,8784.4,18533.52,4867.36,31484.04,-4754.68
960,0.116,0.873,0.273,0.0,1.0,-37.41,-72.33,-21099.2,7964.4,10897.52,7179.36,31484.04,-7079.68
980,0.0,0.0,0.0,0.0,0.0,-26.98,-58.04,-23899.2,9732.4,4489.52,10583.36,31484.04,-7961.68
1000,0.0,0.215,0.302,0.647,1.0,-17.5,-42.8,-24623.2,8768.4,1173.52,12686.36,31484.04,-8068.68
1020,0.004,0.0,0.935,0.0,0.0,-9.28,-27.65,-25811.2,8416.4,-5734.48,13325.36,31484.04,-9958.68
1040,0.116,0.592,1.0,0.0,0.0,-2.02,-13.34,-23967.2,10368.4,-9374.48,13523.36,31484.04,-11384.68
1060,0.062,0.0,0.0,0.0,0.504,4.39,-18.18,-21871.2,6444.4,-13542.48,12068.36,31484.04,-10399.68
1080,0.011,0.0,0.0,0.192,1.0,10.61,-23.36,-21895.2,6176.4,-11318.48,8738.36,31484.04,-9707.68
1100,0.278,0.16,0.82,0.0,1.0,15.98,-28.77,-19499.2,1060.4,-16166.48,2217.36,31484.04,-5242.68
1120,0.21,0.16,0.475,0.324,0.0,20.09,-34.72,-15455.2,1104.4,-24758.48,-1080.64,28631.04,-4043.68
1140,0.202,0.345,0.964,0.0,0.0,21.62,-41.24,-14763.2,2088.4,-24758.48,-5683.64,12844.04,-2740.68
1160,0.243,0.229,1.0,0.0,1.0,21.39,-48.18,-17543.2,3188.4,-24758.48,-9308.64,-439.96,-142.68
1180,0.21,0.064,0.878,0.0,0.0,18.67,-55.0,-19619.2,3128.4,-24054.48,-10268.64,-18963.96,-9.68
1200,0.26,0.064,0.0,0.0,0.446,14.09,-61.82,-20255.2,5676.4,-23590.48,-10271.64,-33242.96,-50.68
1220,0.296,0.181,0.36,0.698,0.0,9.78,-49.84,-21371.2,7596.4,-22162.48,-11175.64,-34050.96,166.32
1240,0.25,0.0,0.273,0.324,0.0,6.12,-57.29,-25139.2,6688.4,-19730.48,-13122.64,-34050.96,1252.32
1260,0.044,0.0,0.0,0.0,1.0,3.21,-64.54,-26623.2,5272.4,-12286.48,-15183.64,-34050.96,2528.32
1280,0.278,0.139,0.0,0.0,1.0,1.17,-71.42,-27931.2,4976.4,-5706.48,-15947.64,-34050.96,4537.32
1300,0.123,0.139,0.0,0.0,0.0,-0.54,-77.58,-26127.2,3876.4,-2378.48,-15826.64,-34050.96,7490.32
1320,0.07,0.276,0.734,0.0,0.0,-1.69,-82.83,-22111.2,2836.4,4413.52,-23041.64,-34050.96,12373.32
1340,0.0,0.037,0.0,0.0,0.0,-3.74,-81.0,-16319.2,4600.4,11917.52,-9680.64,-34050.96,5957.32
1360,0.044,0.345,1.0,0.0,1.0,-7.1,-76.56,-14719.2,4412.4,18829.52,1658.36,-34050.96,6301.32
1380,0.0,0.0,1.0,0.0,0.0,-11.27,-70.72,-10587.2,11224.4,21137.52,1225.36,-34050.96,4229.32
1400,0.197,0.276,0.705,0.0,0.0,-15.92,-65.71,-6279.2,11908.4,23221.52,-3099.64,-34050.96,2997.32
1420,0.0,0.461,1.0,0.0,0.0,-19.08,-60.73,-5079.2,12216.4,25905.52,-1469.64,-25194.96,1833.32
1440,0.164,0.0,0.734,0.475,1.0,-20.21,-55.86,-5883.2,12972.4,27737.52,-1178.64,-13699.96,636.32
1460,0.0,0.0,0.561,0.0,1.0,-19.65,-51.38,-8495.2,11684.4,27737.52,-1431.64,-4777.96,-279.68
1480,0.077,0.338,0.0,0.0,0.0,-17.6,-47.18,-12595.2,9960.4,26761.52,-521.64,1557.04,-921.68
1500,0.182,0.167,1.0,0.0,1.0,-14.32,-42.94,-17311.2,10064.4,24297.52,329.36,4943.04,-2006.68
1520,0.116,0.352,1.0,0.506,0.974,-10.08,-38.72,-21635.2,10356.4,21673.52,348.36,6562.04,-2688.68
1540,0.179,0.078,0.0,0.0,0.0,-5.19,-34.44,-25059.2,10672.4,19033.52,277.36,7313.04,-2414.68
1560,0.06,0.0,0.935,0.0,0.0,-0.16,-30.02,-26871.2,11476.4,17425.52,43.36,7199.04,-915.68
1580,0.072,0.091,0.0,0.223,0.0,4.71,-25.67,-28239.2,11824.4,16577.52,-583.64,6162.04,967.32
1600,0.075,0.078,1.0,0.0,0.0,9.06,-21.64,-27679.2,11620.4,16629.52,-1221.64,4198.04,2106.32
1620,0.164,0.119,0.014,0.0,1.0,12.84,-17.95,-26747.2,11272.4,17081.52,-1357.64,2335.04,2105.32
1640,0.011,0.009,0.0,0.0,0.0,16.06,-14.57,-25639.2,10712.4,17589.52,-1046.64,542.04,1869.32
1660,0.093,0.0,0.906,0.0,0.0,18.89,-11.31,-24839.2,10540.4,17593.52,-556.64,-646.96,1237.32
1680,0.159,0.037,0.273,0.051,0.387,21.51,-8.03,-24327.2,10788.4,17353.52,-87.64,-1081.96,394.32
1700,0.113,0.071,0.0,0.0,0.0,24.03,-4.82,-24139.2,11024.4,17381.52,-60.64,-761.96,-174.68
1720,0.098,0.009,0.0,0.0,0.0,26.53,-1.54,-24387.2,11836.4,17165.52,-199.64,-213.96,-282.68
1739,0.077,0.0,0.417,0.0,0.915,28.86,1.16,-23903.2,10524.4,17797.52,-461.64,-151.96,-26.68
1759,0.113,0.0,1.0,0.0,1.0,31.06,3.73,-23579.2,10524.4,17913.52,-438.64,7.04,-158.68
1779,0.065,0.0,1.0,0.0,0.0,33.25,6.27,-23803.2,10768.4,17773.52,-304.64,313.04,-64.68
1799,0.116,0.0,0.388,0.0,0.0,35.43,8.75,-24303.2,10936.4,17769.52,-302.64,603.04,136.32
1819,0.161,0.0,1.0,0.0,0.0,37.56,11.12,-24303.2,10844.4,17581.52,-184.64,677.04,-59.68
1839,0.09,0.29,1.0,0.0,0.0,39.53,13.34,-24299.2,10700.4,17897.52,-21.64,513.04,-342.68
1859,0.016,0.057,1.0,0.0,0.0,41.36,15.48,-24107.2,10712.4,17913.52,215.36,341.04,-870.68
1879,0.108,0.276,0.561,0.0,0.0,43.17,17.69,-24507.2,11172.4,17629.52,342.36,393.04,-813.68
1899,0.108,0.413,0.014,0.0,1.0,44.92,19.75,-24871.2,11216.4,17817.52,105.36,419.04,-320.68
1920,0.128,0.27,0.791,0.0,0.0,46.61,21.53,-24935.2,10836.4,17677.52,-525.64,327.04,-323.68
1939,0.1,0.0,0.0,0.0,0.0,48.08,23.13,-24655.2,10548.4,18177.52,-354.64,-65.96,-75.68
1959,0.126,0.146,0.0,0.0,0.0,49.39,24.71,-24403.2,10588.4,18217.52,102.36,-446.96,-66.68
1980,0.0,0.0,0.129,0.0,1.0,50.65,26.31,-24211.2,10768.4,17977.52,301.36,-327.96,-393.68
1999,0.116,0.0,0.0,0.0,0.0,51.86,27.91,-24139.2,11036.4,17941.52,403.36,-118.96,82.32
2019,0.034,0.0,0.0,0.0,1.0,53.03,29.41,-23983.2,11076.4,17969.52,290.36,173.04,337.32
2039,0.055,0.0,1.0,0.061,1.0,54.13,30.71,-23931.2,10864.4,18217.52,-31.64,336.04,158.32
2059,0.039,0.0,0.0,0.0,1.0,55.21,31.87,-24135.2,10420.4,18045.52,179.36,175.04,0.32
2079,0.082,0.0,1.0,0.0,0.0,56.22,33.16,-24215.2,10844.4,17929.52,781.36,106.04,87.32
2099,0.177,0.0,0.878,0.0,0.0,57.2,34.46,-24247.2,11128.4,17865.52,802.36,221.04,86.32
2119,0.052,0.167,0.993,0.0,1.0,58.14,35.59,-24115.2,10872.4,17753.52,510.36,294.04,-116.68
2139,0.034,0.0,0.0,0.253,0.0,59.04,36.7,-24011.2,11020.4,17693.52,551.36,487.04,76.32
2159,0.027,0.386,0.619,0.0,1.0,59.91,37.77,-23843.2,11264.4,17605.52,301.36,794.04,131.32
2179,0.034,0.037,0.504,0.0,0.0,60.85,38.68,-24123.2,10960.4,17445.52,28.36,1144.04,141.32
2199,0.034,0.201,0.0,0.0,0.0,61.78,39.49,-24399.2,10836.4,17517.52,46.36,1239.04,169.32
2219,0.103,0.318,0.849,0.0,0.0,62.69,40.28,-24671.2,10868.4,17329.52,99.36,1184.04,-10.68
2239,0.034,0.0,1.0,0.0,0.0,63.53,40.95,-24919.2,10680.4,17517.52,97.36,945.04,-345.68
2259,0.082,0.057,0.82,0.0,0.0,64.26,41.6,-25023.2,10740.4,17489.52,267.36,507.04,-573.68
2279,0.128,0.174,0.129,0.0,1.0,64.89,42.31,-24979.2,10992.4,17421.52,445.36,191.04,-602.68
2299,0.08,0.064,0.0,0.0,0.0,65.46,42.99,-24923.2,11168.4,17373.52,276.36,57.04,-483.68
2319,0.184,0.057,1.0,0.0,0.152,65.98,43.5,-24907.2,10920.4,17409.52,-28.64,-0.96,-353.68
2339,0.197,0.085,0.906,0.0,0.0,66.4,44.01,-24763.2,11084.4,17569.52,16.36,-98.96,-122.68
2359,0.164,0.016,0.0,0.0,0.0,66.73,44.44,-24687.2,11116.4,17913.52,6.36,-146.96,66.32
2379,0.093,0.0,0.0,0.0,0.0,67.05,44.77,-24735.2,10868.4,17781.52,-83.64,-200.96,-65.68
2400,0.227,0.27,0.791,0.04,0.0,67.31,45.09,-24499.2,10796.4,17769.52,216.36,-295.96,-277.68
2420,0.238,0.0,0.072,0.0,0.0,67.54,45.52,-24339.2,11200.4,17693.52,476.36,-105.96,-334.68
2439,0.159,0.0,0.446,0.0,0.0,67.79,45.96,-24179.2,11400.4,17429.52,296.36,205.04,-441.68
2459,0.085,0.283,0.0,0.0,0.0,68.04,46.24,-24403.2,11164.4,17697.52,102.36,318.04,-298.68
2479,0.1,0.276,1.0,0.0,0.0,68.29,46.35,-24643.2,10632.4,17693.52,84.36,184.04,-85.68
2499,0.0,0.174,0.0,0.0,0.0,68.5,46.39,-24675.2,10408.4,17641.52,157.36,-0.96,-318.68
2520,0.118,0.071,0.906,0.344,0.0,68.65,46.51,-24591.2,10672.4,17597.52,408.36,-151.96,-403.68
2539,0.088,0.057,1.0,0.0,1.0,68.78,46.75,-24495.2,11124.4,17445.52,560.36,-92.96,-147.68
2559,0.088,0.03,0.734,0.051,1.0,68.92,46.98,-24583.2,11360.4,17409.52,231.36,164.04,53.32
2579,0.067,0.071,1.0,0.0,0.094,69.07,47.0,-24551.2,10940.4,17453.52,-225.64,331.04,143.32
2599,0.052,0.05,0.561,0.0,0.0,69.2,46.9,-24459.2,10556.4,17521.52,-164.64,328.04,79.32
2619,0.034,0.0,0.0,0.0,0.0,69.32,46.84,-24459.2,10552.4,17473.52,243.36,345.04,-160.68
2639,0.052,0.167,0.101,0.293,0.0,69.39,46.86,-24595.2,10772.4,17541.52,586.36,185.04,-353.68
2659,0.0,0.338,0.59,0.0,0.0,69.44,46.97,-24819.2,11148.4,17425.52,618.36,64.04,-379.68
2679,0.098,0.119,0.446,0.0,0.0,69.48,47.06,-24827.2,11268.4,17381.52,381.36,116.04,-260.68
2699,0.016,0.0,1.0,0.0,0.0,69.54,47.04,-24863.2,11188.4,17405.52,24.36,336.04,-124.68
2719,0.0,0.119,0.763,0.0,0.0,69.6,46.92,-24791.2,10976.4,17361.52,-194.64,456.04,25.32
2739,0.159,0.153,0.0,0.152,0.0,69.65,46.66,-24991.2,10552.4,17605.52,-165.64,386.04,59.32
2759,0.192,0.057,0.417,0.0,1.0,69.61,46.43,-25019.2,10648.4,17709.52,26.36,-12.96,-100.68
2780,0.182,0.057,0.417,0.0,0.0,69.5,46.31,-24911.2,10928.4,17501.52,201.36,-343.96,-254.68
2800,0.077,0.0,1.0,0.0,0.563,69.41,46.18,-24891.2,10872.4,17237.52,228.36,-398.96,-302.68
2820,0.042,0.126,0.273,0.0,1.0,69.3,45.98,-24819.2,10716.4,17469.52,253.36,-274.96,-254.68
2840,0.08,0.215,1.0,0.0,0.0,69.2,45.77,-24823.2,10668.4,17401.52,344.36,-211.96,-129.68
2860,0.098,0.0,0.0,0.0,0.0,69.05,45.56,-24715.2,10736.4,17541.52,352.36,-241.96,-209.68
2879,0.034,0.0,0.619,0.0,0.0,68.85,45.35,-24547.2,10824.4,17553.52,289.36,-404.96,-159.68
2900,0.029,0.0,1.0,0.0,0.0,68.66,45.19,-24635.2,11036.4,17305.52,216.36,-475.96,-172.68
2920,0.08,0.057,0.849,0.0,0.0,68.4,45.05,-24311.2,11196.4,17421.52,216.36,-504.96,-290.68
2940,0.067,0.064,0.647,0.0,0.035,68.13,44.99,-24099.2,11532.4,17201.52,121.36,-391.96,-313.68
2960,0.088,0.057,0.763,0.0,1.0,67.94,44.84,-24155.2,11300.4,17005.52,-185.64,-174.96,-501.68
2980,0.113,0.0,0.0,0.0,0.563,67.75,44.58,-24255.2,11084.4,17321.52,-211.64,-21.96,-844.68
