timestamp,flex_1,flex_2,flex_3,flex_4,flex_5,kalman_pitch,kalman_roll,acc_x,acc_y,acc_z,gyro_x,gyro_y,gyro_z
0,0.83,0.286,0.0,1.0,1.0,46.4,55.07,-89.84,269.76,19509.52,4870.16,4914.5,3401.64
19,0.901,0.264,1.0,0.424,0.0,22.98,32.24,-109.84,641.76,20585.52,6201.16,7404.5,3804.64
39,0.769,0.038,1.0,0.096,0.0,11.85,20.15,-1045.84,-2.24,23481.52,9257.16,12088.5,4541.64
60,0.918,0.25,0.0,0.001,0.025,5.83,14.82,-1705.84,2713.76,26089.52,12743.16,14918.5,5172.64
79,0.982,0.52,0.0,0.0,1.0,2.53,11.26,-2501.84,2077.76,27601.52,13977.16,16127.5,6154.64
99,0.802,0.074,0.0,0.128,1.0,0.57,8.49,-2093.84,777.76,29705.52,13883.16,17018.5,5811.64
119,0.956,0.133,0.0,1.0,0.0,0.12,7.93,-3333.84,2757.76,32481.52,19167.16,19659.5,8709.64
139,1.0,0.739,0.322,1.0,0.943,0.65,9.52,-4157.84,4889.76,34149.52,28727.16,22831.5,16997.64
160,1.0,0.834,0.932,0.668,1.0,2.18,12.44,-5905.84,8201.76,34693.52,33195.16,26645.5,20848.64
180,0.738,0.293,0.0,0.0,0.0,4.45,16.06,-7101.84,12505.76,33497.52,33195.16,30739.5,20102.64
200,0.678,0.06,0.322,0.424,0.0,6.98,19.88,-8753.84,14605.76,31609.52,33195.16,31454.5,16051.64
220,0.956,0.272,0.0,0.329,0.0,9.57,23.31,-10021.84,15909.76,29585.52,29974.16,31454.5,11170.64
240,0.857,0.0,0.0,0.678,0.0,11.94,25.5,-9661.84,13745.76,30129.52,26135.16,31454.5,7424.64
260,0.591,0.169,0.0,0.731,0.731,14.69,28.09,-12345.84,14857.76,28341.52,27785.16,31454.5,5611.64
280,0.85,0.0,1.0,0.0,0.0,17.48,30.96,-13289.84,15189.76,25417.52,28929.16,31454.5,4150.64
300,0.485,0.505,0.0,0.297,1.0,19.88,33.53,-13585.84,15673.76,22825.52,25808.16,29184.5,1199.64
320,0.657,0.308,0.486,0.012,0.0,21.95,35.71,-14553.84,16149.76,20805.52,21783.16,25926.5,-1667.36
340,0.657,0.0,0.0,0.975,1.0,23.57,37.28,-14753.84,15145.76,19673.52,18954.16,22851.5,-2790.36
360,0.657,0.0,1.0,0.0,1.0,25.03,38.46,-15637.84,14565.76,19213.52,17367.16,20595.5,-3375.36
380,0.607,0.855,0.0,0.012,0.0,26.36,39.47,-16657.84,14393.76,18625.52,16345.16,18175.5,-4694.36
400,0.723,0.067,0.0,0.0,0.0,27.4,40.77,-16941.84,14609.76,16701.52,16282.16,15212.5,-5599.36
420,0.984,0.118,0.0,0.181,0.0,28.23,42.29,-17545.84,14325.76,15513.52,17166.16,12232.5,-5740.36
440,0.515,0.191,0.0,0.0,0.0,28.5,44.08,-17357.84,14661.76,14581.52,17636.16,8517.5,-6112.36
460,0.518,0.045,0.0,0.0,0.0,28.16,45.61,-16857.84,13921.76,13709.52,16288.16,4219.5,-6375.36
480,0.5,0.038,0.0,1.0,1.0,27.13,46.71,-15681.84,13029.76,13641.52,15525.16,989.5,-6145.36
500,0.576,0.0,0.668,1.0,1.0,25.75,47.48,-15065.84,11769.76,13237.52,15817.16,-1565.5,-5093.36
520,0.417,0.483,0.833,0.0,0.0,24.1,48.36,-14381.84,11681.76,12833.52,16298.16,-2546.5,-3713.36
540,0.597,0.695,0.0,0.0,0.0,22.77,49.14,-16237.84,13685.76,13981.52,13917.16,-3166.5,-4231.36
560,0.665,0.0,1.0,1.0,0.237,21.0,48.63,-18425.84,13313.76,15933.52,8818.16,-9283.5,-4669.36
580,0.439,0.045,0.0,0.0,0.0,18.94,48.11,-16929.84,12665.76,14617.52,8101.16,-11096.5,-3560.36
600,0.445,0.038,1.0,0.0,1.0,16.67,48.31,-15089.84,13757.76,13717.52,9350.16,-9574.5,-2847.36
620,0.224,0.031,1.0,0.181,1.0,14.96,48.33,-15593.84,13937.76,14521.52,9301.16,-7107.5,-3055.36
640,0.485,0.388,1.0,0.0,0.0,13.4,48.28,-15489.84,14385.76,14433.52,7964.16,-6362.5,-3117.36
660,0.584,0.0,0.0,0.16,0.0,12.02,48.08,-16165.84,14749.76,14401.52,6293.16,-6877.5,-3762.36
680,0.462,0.067,0.0,0.17,1.0,10.64,47.69,-16045.84,15173.76,14405.52,4350.16,-7049.5,-4189.36
700,0.3,0.104,0.0,0.0,1.0,9.44,46.88,-16601.84,14717.76,14533.52,2138.16,-7601.5,-4888.36
720,0.348,0.0,0.0,0.0,0.0,8.33,45.99,-16533.84,14673.76,14205.52,774.16,-7573.5,-5053.36
740,0.51,0.717,1.0,1.0,0.0,7.57,45.13,-17441.84,15141.76,14417.52,348.16,-6890.5,-4342.36
760,0.287,0.841,0.387,1.0,0.0,6.92,44.55,-17773.84,16169.76,14421.52,553.16,-6461.5,-2921.36
780,0.407,0.0,0.0,0.16,1.0,6.37,43.88,-18405.84,16165.76,14945.52,488.16,-6786.5,-2027.36
800,0.546,0.549,0.0,0.0,0.0,5.85,43.24,-18977.84,16729.76,14953.52,-286.84,-7430.5,-1749.36
820,0.379,0.053,0.239,0.202,1.0,5.27,42.5,-19361.84,16857.76,15201.52,-1032.84,-8526.5,-1479.36
840,0.462,0.0,0.8,0.192,0.237,4.51,42.01,-18565.84,17961.76,14813.52,-1375.84,-8718.5,-951.36
860,0.371,0.352,0.206,0.266,1.0,4.06,41.48,-18945.84,18361.76,15665.52,-1226.84,-6981.5,-1400.36
880,0.635,0.0,0.684,1.0,0.0,3.97,40.9,-19805.84,18713.76,17021.52,-563.84,-5091.5,-1926.36
900,0.576,0.0,0.0,0.319,0.0,4.13,40.11,-20433.84,18277.76,17673.52,-1157.84,-4291.5,-2760.36
920,0.65,0.651,0.701,0.0,0.0,4.32,39.17,-20833.84,18309.76,17453.52,-2885.84,-4727.5,-2853.36
940,0.341,0.0,0.354,0.0,0.0,4.42,38.27,-20457.84,18301.76,17321.52,-3064.84,-5122.5,-2018.36
960,0.348,0.272,0.0,0.16,1.0,4.73,37.64,-19913.84,17917.76,17105.52,-1519.84,-3489.5,-1028.36
980,0.404,0.0,0.651,0.0,1.0,5.43,37.34,-20413.84,18541.76,17897.52,639.16,-857.5,-347.36
1000,0.437,0.0,0.404,0.615,1.0,6.53,37.18,-22193.84,19053.76,17893.52,1029.16,474.5,-106.36
1019,0.503,0.323,0.569,0.319,1.0,7.48,36.83,-21617.84,18669.76,17909.52,-98.84,42.5,-86.36
1040,0.462,0.177,1.0,0.636,0.0,8.22,36.48,-20581.84,18269.76,17389.52,-510.84,-623.5,138.64
1059,0.508,0.0,0.0,0.0,0.0,8.98,36.27,-19553.84,17885.76,16321.52,-507.84,162.5,-98.36
1079,0.662,0.133,0.0,0.0,0.0,9.99,36.15,-20033.84,18157.76,16709.52,65.16,1774.5,-495.36
1100,0.424,0.06,0.0,0.742,0.307,11.23,36.09,-20809.84,18189.76,16641.52,251.16,2683.5,-856.36
1120,0.293,0.0,0.0,0.319,1.0,12.3,35.88,-21073.84,17969.76,16553.52,-781.84,1430.5,-1102.36
1140,0.574,0.038,1.0,0.0,1.0,13.07,35.66,-20577.84,17985.76,16197.52,-1507.84,-44.5,-947.36
1160,0.125,0.0,0.0,0.329,1.0,13.66,35.54,-19849.84,17793.76,16181.52,-799.84,-440.5,-291.36
1179,0.295,0.184,1.0,1.0,0.0,14.33,35.63,-19573.84,17889.76,16521.52,801.16,768.5,194.64
1200,0.224,0.0,0.256,0.0,0.0,15.23,35.8,-20205.84,18125.76,16725.52,1308.16,1961.5,-15.36
1220,0.391,0.0,0.486,0.181,0.0,16.19,35.83,-20657.84,17893.76,16693.52,432.16,1948.5,-633.36
1240,0.252,0.0,1.0,0.0,1.0,16.99,35.8,-20225.84,18029.76,16649.52,-185.84,1672.5,-975.36
1260,0.495,0.0,0.124,0.0,0.0,17.83,35.8,-19773.84,17521.76,16157.52,-145.84,2140.5,-1083.36
1280,0.313,0.272,0.668,0.0,0.0,18.8,35.85,-19557.84,16993.76,15793.52,205.16,3048.5,-990.36
1300,0.381,0.0,0.041,0.255,0.025,19.84,35.92,-19721.84,17113.76,15961.52,357.16,3797.5,-881.36
1320,0.424,0.0,0.0,0.0,1.0,21.03,35.94,-20353.84,16417.76,15293.52,-111.84,3646.5,-1106.36
1340,0.219,0.038,0.305,0.837,1.0,21.99,36.01,-20193.84,16605.76,15085.52,-302.84,2600.5,-796.36
1360,0.016,0.0,1.0,0.657,1.0,22.75,36.26,-19637.84,16589.76,14541.52,107.16,1821.5,-255.36
1380,0.242,0.0,0.0,0.0,1.0,23.47,36.64,-19533.84,16573.76,14177.52,464.16,1698.5,457.64
1400,0.32,0.0,0.486,0.0,1.0,24.16,37.04,-19929.84,16821.76,14401.52,699.16,1461.5,1321.64
1420,0.346,0.0,0.0,0.0,0.0,24.7,37.41,-20593.84,16901.76,14509.52,579.16,-47.5,2004.64
1440,0.447,0.0,0.536,0.329,1.0,24.85,37.75,-20669.84,17065.76,14425.52,128.16,-2628.5,2508.64
1460,0.424,0.0,0.091,0.0,1.0,24.48,37.98,-19497.84,16977.76,14233.52,-771.84,-5001.5,2282.64
1480,0.232,0.009,0.0,0.371,0.449,23.91,38.13,-18621.84,17589.76,14957.52,-992.84,-4824.5,1211.64
1500,0.394,0.023,0.0,0.0,1.0,23.77,38.21,-20129.84,18077.76,16133.52,-577.84,-3075.5,277.64
1520,0.462,0.607,0.0,0.996,0.0,23.79,38.21,-21077.84,18313.76,16781.52,-578.84,-2760.5,126.64
1540,0.108,0.0,0.305,0.996,1.0,23.7,38.13,-21093.84,18489.76,16925.52,-1243.84,-3350.5,-101.36
1560,0.538,0.505,0.0,0.276,0.0,23.47,37.93,-20673.84,18453.76,17105.52,-1970.84,-3986.5,-364.36
1580,0.298,0.169,0.157,0.0,0.0,23.25,37.82,-19505.84,18133.76,16741.52,-1620.84,-3007.5,-581.36
1600,0.462,0.0,0.0,0.0,0.0,23.42,37.87,-20349.84,18465.76,17337.52,-242.84,-1006.5,-212.36
1620,0.495,0.0,0.0,0.572,0.0,23.73,37.98,-20877.84,18385.76,17581.52,415.16,-489.5,280.64
1640,0.216,0.0,0.0,0.0,0.0,23.92,37.99,-20813.84,18365.76,17509.52,-294.84,-1263.5,541.64
1660,0.508,0.191,0.0,0.0,1.0,23.98,38.04,-20313.84,18297.76,16769.52,-853.84,-1922.5,548.64
1680,0.262,0.0,0.0,0.297,0.0,24.05,38.17,-19673.84,18337.76,16705.52,-403.84,-1180.5,234.64
1699,0.371,0.191,0.0,0.0,1.0,24.31,38.35,-19729.84,18229.76,16781.52,98.16,31.5,-137.36
1720,0.325,0.0,0.0,0.0,0.237,24.69,38.41,-20393.84,17981.76,17157.52,-122.84,255.5,-476.36
1740,0.353,0.0,0.074,0.371,1.0,24.96,38.44,-20325.84,18053.76,17001.52,-598.84,-304.5,-541.36
1760,0.341,0.0,0.948,0.0,0.0,25.14,38.43,-20089.84,18033.76,16809.52,-1106.84,-797.5,-704.36
1780,0.358,0.0,0.0,0.266,0.0,25.32,38.45,-19553.84,17849.76,16397.52,-1201.84,-417.5,-1119.36
1800,0.272,0.0,1.0,0.0,0.0,25.64,38.52,-19533.84,17381.76,16389.52,-515.84,432.5,-1055.36
1820,0.348,1.0,1.0,1.0,0.0,26.06,38.71,-19817.84,17357.76,16461.52,390.16,857.5,-402.36
1839,0.369,0.0,0.552,0.467,1.0,26.4,38.86,-20053.84,17369.76,16777.52,515.16,337.5,182.64
1860,0.138,0.242,1.0,0.0,0.0,26.55,39.03,-19557.84,17505.76,16661.52,316.16,-328.5,475.64
1880,0.252,0.476,0.0,0.213,0.0,26.7,39.15,-19445.84,17305.76,16377.52,-88.84,-381.5,182.64
1899,0.346,0.279,0.387,0.0,0.0,26.91,39.28,-19437.84,17337.76,16261.52,-228.84,41.5,-76.36
1919,0.338,0.0,1.0,0.329,0.166,27.19,39.44,-19457.84,17449.76,16241.52,-82.84,594.5,-290.36
1940,0.229,0.038,0.0,0.139,0.0,27.5,39.57,-20013.84,17501.76,16577.52,-40.84,495.5,-323.36
1960,0.237,0.658,0.124,0.0,0.0,27.72,39.67,-20105.84,17477.76,16541.52,-225.84,-225.5,-345.36
1980,0.488,0.0,0.0,0.382,0.0,27.81,39.68,-19977.84,17413.76,16657.52,-733.84,-924.5,-384.36
2000,0.28,0.0,1.0,0.0,1.0,27.81,39.73,-19493.84,17409.76,16409.52,-737.84,-1090.5,-331.36
2020,0.5,0.0,0.552,0.16,1.0,27.89,39.83,-19409.84,17401.76,16461.52,-363.84,-373.5,-458.36
2040,0.267,0.0,0.0,0.541,0.0,28.17,40.02,-20321.84,17709.76,16653.52,179.16,176.5,-385.36
2060,0.062,0.491,0.0,0.192,1.0,28.47,40.15,-20573.84,17337.76,16505.52,-51.84,-46.5,-378.36
2080,0.323,0.0,0.0,1.0,0.0,28.71,40.23,-21001.84,17549.76,16369.52,-671.84,-797.5,-520.36
2100,0.498,0.0,0.0,0.001,1.0,28.64,40.26,-20481.84,17805.76,17261.52,-429.84,-1887.5,132.64
2120,0.254,0.0,0.206,0.0,0.449,28.39,40.35,-19857.84,17921.76,17749.52,355.16,-2215.5,1075.64
2140,0.3,0.0,0.0,0.308,0.0,28.31,40.58,-19313.84,17857.76,17465.52,1086.16,-759.5,1072.64
2160,0.374,0.388,0.0,0.0,0.0,28.57,40.68,-19641.84,17717.76,17457.52,332.16,1178.5,-124.36
2180,0.3,0.0,0.0,0.816,0.0,28.93,40.58,-19697.84,17281.76,17113.52,-903.84,1521.5,-853.36
2200,0.282,0.68,0.0,0.848,0.0,29.24,40.56,-19741.84,17097.76,16613.52,-789.84,1022.5,-487.36
2219,0.184,0.0,0.305,0.0,1.0,29.5,40.78,-19797.84,17213.76,16237.52,318.16,537.5,436.64
2239,0.427,0.381,1.0,0.096,0.0,29.66,41.06,-19513.84,17145.76,16341.52,919.16,342.5,728.64
2259,0.252,0.0,0.0,0.0,0.0,29.8,41.26,-19637.84,17197.76,16301.52,380.16,38.5,338.64
2280,0.447,0.0,0.75,0.403,0.0,29.95,41.39,-19921.84,17121.76,15945.52,-452.84,-308.5,-173.36
2300,0.209,0.038,0.47,0.0,1.0,30.05,41.53,-20229.84,17257.76,16069.52,-349.84,-790.5,-140.36
2320,0.313,0.0,0.058,0.022,0.449,30.07,41.78,-19997.84,17341.76,16413.52,737.16,-975.5,360.64
2339,0.285,0.0,0.0,0.879,0.0,30.05,41.98,-20005.84,17429.76,16805.52,759.16,-965.5,244.64
2360,0.265,0.308,0.0,0.0,0.0,30.04,42.05,-20317.84,17537.76,16941.52,-127.84,-1152.5,-254.36
2380,0.363,0.0,0.734,1.0,1.0,30.02,42.03,-20285.84,17437.76,17033.52,-507.84,-1213.5,-541.36
2400,0.333,0.0,0.041,0.647,1.0,29.97,41.91,-19633.84,16861.76,17141.52,-551.84,-982.5,-723.36
2420,0.021,0.0,0.0,0.001,1.0,30.0,41.83,-19349.84,16725.76,16917.52,-442.84,-217.5,-940.36
2440,0.543,0.921,0.0,0.0,0.0,30.17,41.75,-19677.84,16661.76,16877.52,-428.84,260.5,-642.36
2459,0.414,0.0,1.0,0.086,1.0,30.25,41.66,-19601.84,16773.76,17253.52,-305.84,81.5,183.64
2480,0.305,0.001,0.0,0.446,0.0,30.32,41.59,-19937.84,17157.76,17209.52,-629.84,-217.5,575.64
2500,0.374,0.0,0.0,0.329,0.0,30.36,41.55,-20709.84,17929.76,17305.52,-1096.84,-803.5,778.64
2520,0.298,0.031,0.256,0.0,0.0,30.32,41.63,-20353.84,18241.76,17189.52,-711.84,-907.5,1099.64
2540,0.252,0.0,1.0,0.0,0.095,30.34,41.76,-20309.84,18325.76,17285.52,-379.84,-403.5,1071.64
2559,0.399,0.418,0.0,0.467,0.0,30.43,42.05,-20381.84,18637.76,17041.52,246.16,74.5,1115.64
2580,0.3,0.0,0.041,0.0,0.095,30.52,42.41,-20405.84,18345.76,16949.52,943.16,-45.5,1146.64
2600,0.343,0.0,0.041,0.0,0.0,30.52,42.61,-19593.84,17481.76,17229.52,986.16,-143.5,421.64
2620,0.505,0.0,0.816,0.0,0.0,30.45,42.54,-18517.84,16917.76,16969.52,-539.84,272.5,-1428.36
2640,0.376,0.0,0.602,0.0,0.0,30.5,42.11,-18145.84,16021.76,16781.52,-2337.84,1053.5,-2989.36
2660,0.338,0.235,0.552,0.0,0.0,30.71,41.63,-18701.84,15613.76,16833.52,-2282.84,1471.5,-2639.36
2680,0.328,0.0,0.0,1.0,0.519,30.86,41.42,-19049.84,15957.76,16961.52,-806.84,873.5,-218.36
2699,0.594,0.045,1.0,0.0,0.59,30.89,41.48,-19301.84,16665.76,16993.52,155.16,179.5,1969.64
2719,0.629,0.0,0.0,0.139,1.0,30.91,41.71,-19557.84,17457.76,16637.52,306.16,-4.5,2803.64
2740,0.477,0.454,0.0,0.657,0.0,31.04,42.14,-20033.84,18125.76,16353.52,695.16,503.5,2547.64
2759,0.346,0.14,0.041,0.054,0.0,31.24,42.59,-20429.84,18305.76,16241.52,715.16,712.5,1542.64
2779,0.442,0.0,0.387,1.0,0.0,31.33,42.97,-20253.84,18217.76,16261.52,443.16,74.5,629.64
2799,0.011,0.0,0.0,0.297,0.0,31.24,43.14,-19305.84,17437.76,16517.52,87.16,-298.5,-334.36
2820,0.384,0.0,1.0,1.0,0.0,31.09,43.1,-18789.84,17009.76,17197.52,-302.84,-157.5,-1375.36
2840,0.399,0.272,0.0,0.033,0.0,30.91,42.83,-18629.84,16741.76,17501.52,-1310.84,-163.5,-2222.36
2860,0.475,0.505,0.124,0.0,0.0,30.73,42.32,-18957.84,16589.76,17717.52,-2717.84,-554.5,-2485.36
2880,0.617,0.0,0.47,0.625,1.0,30.62,41.94,-19477.84,17065.76,17329.52,-2808.84,-607.5,-1827.36
2900,0.239,0.016,0.0,0.0,1.0,30.6,41.88,-20205.84,17633.76,17129.52,-1516.84,-589.5,-240.36
2920,0.45,0.001,0.0,0.604,0.0,30.58,42.23,-20861.84,18573.76,17305.52,653.16,-754.5,1777.64
2940,0.467,0.461,1.0,0.213,0.731,30.51,42.81,-20773.84,18801.76,17877.52,2606.16,-759.5,2922.64
2960,0.348,0.067,0.0,0.0,0.0,30.4,43.25,-20057.84,18385.76,18369.52,2597.16,-366.5,2139.64
2979,0.457,0.0,0.041,1.0,0.0,30.38,43.26,-19661.84,17933.76,18177.52,32.16,362.5,-374.36
