timestamp,flex_1,flex_2,flex_3,flex_4,flex_5,kalman_pitch,kalman_roll,acc_x,acc_y,acc_z,gyro_x,gyro_y,gyro_z
0,0.962,0.158,0.0,0.737,0.0,32.26,-119.95,-855.92,1390.08,19398.32,-620.9,-908.38,1544.6
19,1.0,0.076,1.0,0.125,0.407,11.21,-97.63,-131.92,1442.08,19126.32,681.1,-762.38,1567.6
39,1.0,0.377,0.0,0.479,1.0,-1.69,-84.04,-331.92,1486.08,18802.32,1345.1,-579.38,1189.6
59,1.0,0.069,0.0,0.431,1.0,-9.29,-74.28,-1555.92,1202.08,19498.32,4195.1,2220.62,1698.6
79,1.0,0.24,1.0,0.0,0.0,-14.38,-67.06,-1103.92,106.08,20686.32,5661.1,2289.62,891.6
99,1.0,0.124,0.0,0.259,0.477,-18.63,-60.59,-1479.92,1742.08,20438.32,6078.1,1049.62,-883.4
119,1.0,0.274,1.0,0.0,0.0,-21.59,-55.09,-2171.92,1846.08,21298.32,6008.1,1069.62,-927.4
139,1.0,0.124,0.529,0.0,0.082,-23.83,-51.12,-2267.92,1038.08,21718.32,3252.1,955.62,-1846.4
159,1.0,0.0,0.33,0.288,0.0,-25.03,-48.46,-3419.92,526.08,23698.32,-3291.9,993.62,-4793.4
179,0.83,0.138,0.0,0.0,0.0,-25.87,-47.36,-3663.92,-13.92,24486.32,-11439.9,926.62,-7876.4
200,0.594,0.042,0.0,0.861,0.0,-26.93,-48.17,-2987.92,-1533.92,23318.32,-19367.9,-77.38,-8779.4
220,0.653,0.22,0.557,0.852,0.0,-28.14,-50.66,-1283.92,-3197.92,21914.32,-26856.9,682.62,-9092.4
239,0.67,0.0,0.586,0.393,0.0,-28.74,-54.18,-731.92,-4997.92,21538.32,-32317.9,3824.62,-9437.4
260,0.585,0.466,0.983,0.144,0.0,-29.05,-57.39,-927.92,-4481.92,21362.32,-32317.9,5643.62,-7802.4
280,0.825,0.0,0.359,0.0,1.0,-29.01,-60.71,-2323.92,-4173.92,19454.32,-32317.9,7476.62,-2033.4
300,0.656,0.0,0.16,0.0,1.0,-28.65,-64.52,-3083.92,-6097.92,17542.32,-32317.9,8322.62,3527.6
320,0.626,0.0,0.0,0.326,0.384,-28.62,-68.84,-1691.92,-9497.92,15494.32,-32317.9,5911.62,6968.6
340,0.631,0.582,0.217,0.928,0.0,-28.67,-73.47,-1315.92,-12781.92,13154.32,-32317.9,4147.62,9463.6
360,0.854,0.329,0.0,0.221,0.0,-28.56,-78.04,-1167.92,-14337.92,11938.32,-32317.9,4616.62,12005.6
380,0.68,0.0,0.0,0.508,0.222,-28.39,-82.35,-1407.92,-13869.92,11646.32,-32317.9,5126.62,15464.6
400,0.781,0.616,0.671,0.068,1.0,-28.16,-86.42,-1847.92,-13345.92,9878.32,-30400.9,5543.62,18799.6
420,0.401,0.0,1.0,0.9,0.222,-28.12,-89.67,-1627.92,-12757.92,9406.32,-25853.9,4792.62,19953.6
440,0.589,0.138,0.0,0.097,0.059,-28.35,-92.57,-2107.92,-12545.92,9066.32,-24412.9,2589.62,19735.6
460,0.55,0.199,0.472,0.135,0.0,-29.17,-95.56,-2007.92,-11281.92,8030.32,-24857.9,-931.38,19297.6
480,0.67,0.083,0.0,0.087,0.106,-30.41,-98.79,-1847.92,-11393.92,6518.32,-25914.9,-4126.38,19787.6
500,0.643,0.685,0.0,0.0,0.175,-31.85,-101.91,-2175.92,-11257.92,5814.32,-25556.9,-6354.38,19417.6
520,0.462,0.22,0.33,0.269,0.0,-33.57,-104.87,-2171.92,-10337.92,4390.32,-23803.9,-8590.38,19187.6
540,0.535,0.705,0.0,0.747,1.0,-35.52,-107.69,-1511.92,-10049.92,2814.32,-22089.9,-10428.38,18876.6
560,0.616,0.288,0.0,0.0,0.0,-37.68,-110.29,-1291.92,-10321.92,2282.32,-21139.9,-12684.38,18980.6
580,0.592,0.213,0.0,0.278,1.0,-40.12,-112.51,-1323.92,-10253.92,2222.32,-19444.9,-15587.38,20382.6
600,0.535,0.678,0.0,0.919,0.222,-42.85,-114.18,-1667.92,-9625.92,2670.32,-16644.9,-18363.38,21612.6
620,0.388,0.555,0.0,0.871,0.0,-45.8,-115.74,-2555.92,-8577.92,1226.32,-14497.9,-21696.38,23424.6
640,0.631,0.0,1.0,0.001,1.0,-48.95,-117.58,-3471.92,-7373.92,738.32,-15737.9,-24593.38,25818.6
660,0.624,0.0,0.0,0.0,0.291,-52.23,-119.8,-4943.92,-8109.92,-133.68,-18618.9,-28822.38,26051.6
680,0.695,0.541,0.416,0.0,0.0,-56.18,-122.69,-2043.92,-9869.92,-2341.68,-23159.9,-33526.38,26136.6
700,0.668,0.185,0.33,1.0,0.454,-59.51,-124.74,-6603.92,-8421.92,710.32,-20378.9,-33858.38,24734.6
720,0.683,0.692,0.955,0.45,0.0,-62.37,-124.83,-8911.92,-6525.92,2222.32,-8127.9,-33858.38,26160.6
740,0.695,0.651,0.557,0.278,0.059,-64.76,-123.44,-10119.92,-2361.92,4450.32,2157.1,-31871.38,27983.6
760,0.911,0.548,0.245,0.775,0.0,-66.2,-121.97,-13163.92,806.08,6346.32,2745.1,-32113.38,29055.6
780,0.832,0.534,0.0,1.0,0.0,-66.05,-121.49,-15867.92,2946.08,7482.32,-3704.9,-32372.38,26328.6
800,0.516,0.746,0.529,0.087,0.0,-63.85,-121.36,-17447.92,5022.08,9098.32,-9906.9,-30419.38,21555.6
820,0.744,0.699,1.0,1.0,0.0,-60.52,-119.55,-18291.92,5606.08,10746.32,-13843.9,-26079.38,18268.6
840,0.732,0.377,0.359,0.632,1.0,-57.4,-115.72,-19379.92,5294.08,14986.32,-15041.9,-20016.38,13704.6
860,0.962,0.035,0.501,0.288,0.0,-53.38,-110.64,-24067.92,6482.08,16986.32,-11275.9,-16576.38,10117.6
880,0.727,1.0,0.0,0.9,0.0,-49.17,-105.24,-26207.92,6258.08,19106.32,-8091.9,-13913.38,7718.6
900,0.597,1.0,0.0,0.718,0.0,-44.79,-99.01,-27187.92,7150.08,19678.32,-3219.9,-12072.38,5656.6
919,0.496,1.0,0.0,1.0,0.0,-39.85,-91.51,-27447.92,9002.08,18322.32,2658.1,-8904.38,2866.6
940,0.432,0.883,1.0,0.785,0.0,-34.01,-82.68,-26747.92,10950.08,15618.32,6265.1,-3287.38,965.6
960,0.668,0.644,1.0,1.0,1.0,-27.31,-74.24,-28395.92,11062.08,15766.32,5873.1,3352.62,-1453.4
980,0.553,1.0,0.132,0.928,0.964,-19.62,-66.37,-28411.92,9878.08,14162.32,5071.1,9513.62,-3996.4
1000,0.629,1.0,0.0,0.871,0.593,-11.14,-59.64,-28063.92,8082.08,12342.32,5385.1,14187.62,-6601.4
1020,0.585,0.685,0.16,1.0,1.0,-2.09,-54.69,-28639.92,7310.08,10382.32,7970.1,17736.62,-8566.4
1039,0.639,0.24,0.87,0.259,0.825,6.59,-55.52,-28215.92,5902.08,8282.32,10565.1,20275.62,-9777.4
1060,0.545,0.637,0.075,0.594,0.0,14.95,-56.55,-29499.92,5334.08,7542.32,10302.1,21578.62,-11320.4
1080,0.604,0.0,0.0,0.575,0.43,22.12,-58.01,-28347.92,3614.08,5050.32,9263.1,20084.62,-12682.4
1099,0.589,0.124,0.0,0.594,0.0,27.98,-59.55,-25215.92,234.08,2382.32,6818.1,20300.62,-14921.4
1120,0.575,0.0,0.0,0.336,0.0,33.37,-61.11,-26359.92,-669.92,2678.32,5043.1,18514.62,-14217.4
1140,0.614,0.582,0.0,0.355,1.0,38.46,-62.43,-29027.92,-953.92,1934.32,7250.1,17073.62,-10346.4
1160,0.442,0.63,0.0,0.527,0.802,42.71,-63.36,-24035.92,-861.92,1950.32,10102.1,16850.62,-8267.4
1179,0.513,0.411,0.274,0.747,1.0,46.48,-64.71,-21539.92,-1681.92,-953.68,9648.1,19824.62,-9466.4
1200,0.469,0.404,0.0,0.393,0.616,50.11,-66.99,-22103.92,-3977.92,-2497.68,2370.1,21273.62,-14052.4
1220,0.293,0.309,0.0,0.02,0.0,52.78,-69.5,-22415.92,-6457.92,-225.68,-3772.9,15935.62,-11835.4
1239,0.342,0.384,0.444,0.852,0.454,54.23,-71.43,-19455.92,-7621.92,-2149.68,718.1,12440.62,-4433.4
1260,0.312,0.466,1.0,1.0,0.0,55.18,-72.89,-16307.92,-6917.92,-4533.68,6033.1,13110.62,-3480.4
1279,0.513,0.774,0.0,0.871,1.0,55.8,-75.3,-15523.92,-7221.92,-6813.68,620.1,12490.62,-6700.4
1300,0.567,0.014,1.0,1.0,0.0,55.39,-78.84,-16671.92,-9193.92,-3861.68,-10886.9,4735.62,-6100.4
1320,0.599,0.24,0.0,0.555,0.0,53.87,-82.12,-16279.92,-8397.92,-4313.68,-9282.9,-2379.38,-935.4
1339,0.668,0.356,0.983,0.0,0.0,52.04,-84.49,-16811.92,-6861.92,-5169.68,-2157.9,-5403.38,1520.6
1360,0.607,0.466,0.245,0.336,0.0,49.46,-87.16,-16847.92,-5013.92,-4525.68,-3779.9,-11278.38,1940.6
1380,0.808,0.534,0.472,1.0,0.0,46.57,-90.6,-19819.92,-4377.92,-3113.68,-10255.9,-17674.38,2477.6
1400,0.509,0.637,0.784,1.0,1.0,43.28,-94.55,-23295.92,-3193.92,-3141.68,-13562.9,-25034.38,4291.6
1420,0.616,0.247,0.557,1.0,1.0,39.69,-98.57,-21887.92,-2121.92,-3609.68,-13841.9,-27031.38,9212.6
1440,0.54,0.028,0.0,0.89,0.0,36.16,-102.7,-21455.92,-237.92,-681.68,-16004.9,-29396.38,9083.6
1460,0.477,0.179,0.075,1.0,0.0,33.18,-106.38,-22391.92,-745.92,206.32,-15634.9,-28167.38,11058.6
1480,0.555,0.528,0.245,0.89,0.0,30.95,-110.07,-24143.92,1646.08,3094.32,-16980.9,-29398.38,7253.6
1500,0.609,0.261,0.0,0.871,0.0,29.01,-113.01,-24215.92,1898.08,5778.32,-17573.9,-30797.38,2670.6
1520,0.531,0.534,0.0,0.374,0.941,26.87,-115.42,-21447.92,1030.08,6122.32,-17029.9,-29485.38,-748.4
1540,0.383,0.418,0.472,0.641,0.0,25.85,-116.31,-22091.92,-69.92,7318.32,-11435.9,-22741.38,-2043.4
1560,0.604,0.575,0.0,0.269,0.0,27.01,-115.12,-26543.92,814.08,9322.32,-2345.9,-13585.38,-2773.4
1580,0.398,0.746,0.983,0.909,0.0,29.15,-112.45,-27599.92,-173.92,10630.32,4531.1,-6149.38,-4557.4
1600,0.459,0.425,0.075,0.833,0.0,31.92,-108.68,-29659.92,406.08,11326.32,10719.1,-2820.38,-5034.4
1620,0.428,0.733,0.0,0.833,0.0,35.06,-104.73,-29235.92,2034.08,10414.32,15293.1,-1184.38,-4747.4
1639,0.415,0.226,0.0,0.995,0.407,38.6,-101.87,-29283.92,3618.08,9238.32,14131.1,629.62,-4394.4
1659,0.506,0.637,0.018,0.565,0.0,42.22,-100.47,-29291.92,3406.08,8382.32,8837.1,2681.62,-3579.4
1679,0.55,0.5,0.0,0.068,1.0,45.83,-100.0,-30071.92,2342.08,7658.32,4112.1,4876.62,-2501.4
1699,0.43,0.322,0.189,0.67,0.0,49.3,-99.79,-29431.92,1118.08,7434.32,1762.1,6524.62,-1470.4
1719,0.513,0.144,0.0,0.24,1.0,52.51,-99.83,-29023.92,450.08,6934.32,864.1,6891.62,-765.4
1739,0.786,0.151,0.0,0.0,1.0,55.44,-100.0,-28631.92,10.08,6214.32,1157.1,6861.62,-591.4
1759,0.585,0.486,0.0,0.45,1.0,58.09,-100.43,-27983.92,-37.92,4946.32,1920.1,7008.62,-473.4
1779,0.472,0.452,1.0,0.23,1.0,60.66,-100.85,-27975.92,306.08,4858.32,2546.1,7198.62,-103.4
1799,0.413,0.083,0.0,1.0,0.454,62.9,-101.45,-27627.92,598.08,4462.32,2417.1,5911.62,331.6
1819,0.428,0.931,0.784,0.603,0.082,64.72,-102.3,-27115.92,522.08,4270.32,923.1,4407.62,152.6
1839,0.499,0.692,0.0,0.919,0.0,66.09,-103.42,-26695.92,-29.92,3598.32,-790.9,3116.62,74.6
1859,0.469,0.671,0.0,1.0,1.0,67.24,-104.45,-26167.92,-821.92,3234.32,-761.9,3304.62,-245.4
1879,0.553,0.391,0.0,0.756,0.222,68.46,-104.96,-26279.92,-705.92,4062.32,1483.1,3638.62,26.6
1899,0.396,0.664,0.0,0.842,0.0,69.59,-105.28,-26547.92,-181.92,4182.32,3156.1,2901.62,334.6
1919,0.42,0.924,1.0,0.364,0.0,70.56,-105.71,-26727.92,46.08,4398.32,2270.1,1801.62,-11.4
1939,0.469,0.829,1.0,0.0,1.0,71.25,-106.65,-26591.92,-201.92,3674.32,-349.9,1060.62,-142.4
1959,0.587,0.096,0.0,1.0,0.0,71.8,-107.6,-26483.92,-1013.92,3630.32,-1520.9,1118.62,-275.4
1979,0.513,0.206,0.0,0.546,0.0,72.39,-108.2,-26235.92,-1081.92,4234.32,-338.9,1575.62,-155.4
1999,0.391,0.35,1.0,0.23,0.013,73.0,-108.64,-26559.92,-485.92,4370.32,1107.1,1313.62,307.6
2019,0.504,0.0,1.0,0.163,0.964,73.52,-109.18,-26723.92,-261.92,4458.32,470.1,643.62,76.6
2039,0.501,0.226,0.075,0.0,0.291,73.86,-109.85,-26731.92,-601.92,4330.32,-678.9,55.62,102.6
2059,0.535,0.247,1.0,0.0,1.0,74.19,-110.35,-26531.92,-693.92,4554.32,-209.9,291.62,95.6
2079,0.474,0.377,0.0,0.957,0.0,74.55,-110.76,-26471.92,-413.92,4478.32,823.1,622.62,205.6
2099,0.538,0.685,1.0,1.0,0.0,74.99,-111.12,-26555.92,162.08,4822.32,1214.1,663.62,349.6
2119,0.511,0.452,0.0,0.584,0.222,75.36,-111.7,-26415.92,402.08,4330.32,746.1,678.62,324.6
2139,0.518,0.315,0.0,0.536,0.941,75.71,-112.41,-26511.92,226.08,4298.32,-373.9,807.62,148.6
2159,0.648,0.924,0.0,0.278,0.0,75.99,-113.13,-26619.92,22.08,4078.32,-528.9,843.62,-15.4
2179,0.683,0.685,0.132,0.555,0.013,76.21,-113.71,-26531.92,-25.92,4002.32,345.1,787.62,-171.4
2199,0.624,0.452,0.614,0.0,1.0,76.45,-114.23,-26675.92,294.08,3982.32,1140.1,802.62,-117.4
2219,0.435,0.459,0.047,0.594,0.268,76.72,-114.75,-26699.92,622.08,4178.32,1120.1,813.62,-204.4
2239,0.715,0.0,1.0,0.45,0.0,76.9,-115.43,-26711.92,442.08,4014.32,-25.9,605.62,-264.4
2259,0.533,0.206,0.274,0.603,0.222,76.99,-116.17,-26715.92,30.08,3786.32,-808.9,618.62,-316.4
2279,0.614,0.247,0.33,0.0,0.059,77.06,-116.72,-26947.92,-457.92,4002.32,-553.9,739.62,-200.4
2299,0.543,0.0,0.0,1.0,0.0,77.08,-117.1,-27051.92,-449.92,4210.32,193.1,439.62,13.6
2319,0.582,0.0,0.784,0.0,0.0,77.07,-117.51,-26703.92,126.08,3970.32,937.1,231.62,182.6
2339,0.479,0.569,0.0,0.9,0.0,77.06,-118.03,-26467.92,410.08,3882.32,593.1,347.62,124.6
2359,0.54,0.459,0.0,0.0,0.222,77.04,-118.64,-26459.92,66.08,3862.32,-458.9,728.62,-26.4
2379,0.491,0.247,0.018,1.0,0.0,77.0,-119.1,-26475.92,-461.92,4070.32,-614.9,953.62,2.6
2399,0.528,0.336,0.955,0.9,1.0,76.94,-119.42,-26615.92,-397.92,4134.32,244.1,781.62,108.6
2419,0.403,0.028,0.0,0.641,0.0,76.82,-119.69,-26571.92,30.08,4118.32,995.1,148.62,235.6
2439,0.482,0.363,0.0,0.9,0.0,76.62,-120.09,-26207.92,334.08,3838.32,957.1,-56.38,12.6
2459,0.398,0.315,0.0,0.584,0.43,76.49,-120.57,-26139.92,426.08,3986.32,163.1,320.62,-135.4
2479,0.518,0.062,0.0,0.498,0.0,76.44,-120.96,-26363.92,70.08,4442.32,-500.9,833.62,-311.4
2499,0.45,0.808,0.0,0.0,1.0,76.34,-121.31,-26415.92,-181.92,4506.32,-738.9,782.62,-326.4
2519,0.504,0.069,0.501,0.89,0.0,76.15,-121.6,-26311.92,-353.92,4054.32,155.1,637.62,-283.4
2539,0.271,0.0,0.983,1.0,0.964,75.95,-121.87,-26359.92,-161.92,3598.32,1106.1,744.62,-289.4
2559,0.408,0.0,0.047,0.68,0.0,75.75,-122.25,-26327.92,-77.92,3434.32,653.1,926.62,-370.4
2579,0.516,0.61,0.983,0.431,1.0,75.58,-122.75,-26519.92,-225.92,3506.32,-515.9,1034.62,-350.4
2599,0.535,0.685,0.0,0.9,1.0,75.39,-123.19,-26807.92,-385.92,3874.32,-1047.9,790.62,-263.4
2619,0.555,0.0,0.0,0.106,1.0,75.11,-123.53,-26807.92,-525.92,3830.32,-474.9,249.62,-122.4
2639,0.374,0.391,0.0,0.575,1.0,74.78,-123.71,-26391.92,-121.92,3878.32,828.1,-1.38,-36.4
2659,0.381,0.247,0.274,0.297,0.0,74.51,-123.89,-26403.92,390.08,3862.32,1520.1,25.62,-72.4
2679,0.692,0.117,1.0,0.9,0.0,74.27,-124.21,-26307.92,538.08,3746.32,910.1,258.62,-241.4
2699,0.391,0.37,0.075,0.661,0.43,74.03,-124.64,-26403.92,262.08,3774.32,-318.9,393.62,-373.4
2719,0.418,1.0,0.0,1.0,0.0,73.74,-124.99,-26443.92,-185.92,3986.32,-806.9,321.62,-391.4
2739,0.437,1.0,1.0,0.0,0.0,73.42,-125.24,-26379.92,-297.92,3962.32,-221.9,255.62,-464.4
2759,0.425,0.398,0.0,0.527,0.106,73.1,-125.32,-26287.92,-409.92,3890.32,730.1,440.62,-448.4
2779,0.479,0.261,1.0,0.584,0.0,72.84,-125.43,-26311.92,-5.92,3778.32,1233.1,691.62,-362.4
2799,0.472,0.439,0.0,0.909,0.0,72.66,-125.66,-26367.92,290.08,3874.32,592.1,873.62,-343.4
2819,0.467,0.233,0.075,0.087,0.198,72.41,-126.03,-26439.92,-65.92,3754.32,-679.9,724.62,-330.4
2839,0.428,0.575,0.0,1.0,0.0,72.12,-126.31,-26495.92,-421.92,3922.32,-799.9,632.62,-359.4
2859,0.513,0.432,0.0,0.766,0.314,71.82,-126.43,-26439.92,-449.92,3950.32,81.1,652.62,-374.4
2879,0.58,0.555,0.0,0.728,0.291,71.55,-126.52,-26547.92,-265.92,3782.32,697.1,731.62,-362.4
2899,0.447,0.233,0.0,1.0,0.639,71.3,-126.68,-26435.92,-45.92,3686.32,678.1,854.62,-377.4
2919,0.435,0.87,0.0,0.938,1.0,71.07,-126.85,-26579.92,-137.92,3826.32,211.1,902.62,-348.4
2939,0.482,0.09,0.387,0.527,0.0,70.79,-127.01,-26759.92,-417.92,3782.32,-83.9,688.62,-185.4
2959,0.516,0.562,0.444,0.947,0.871,70.49,-127.08,-26659.92,-473.92,4038.32,66.1,509.62,-201.4
2979,0.366,0.206,0.87,0.0,1.0,70.16,-126.97,-26579.92,-553.92,4234.32,866.1,377.62,-244.4
