timestamp,flex_1,flex_2,flex_3,flex_4,flex_5,kalman_pitch,kalman_roll,acc_x,acc_y,acc_z,gyro_x,gyro_y,gyro_z
0,0.845,0.233,0.586,0.307,0.059,61.24,-91.08,-1479.92,290.08,17798.32,1621.1,2040.62,1030.6
20,0.989,0.24,0.0,1.0,0.361,35.19,-77.66,-2535.92,-29.92,18750.32,3072.1,5657.62,861.6
40,1.0,0.144,1.0,0.0,0.0,21.03,-67.96,-3479.92,-97.92,21318.32,3497.1,6079.62,229.6
60,1.0,0.322,1.0,0.0,1.0,12.73,-61.02,-5011.92,-1089.92,22838.32,5653.1,5055.62,-0.4
80,1.0,0.226,0.0,0.0,0.0,6.34,-55.98,-4907.92,-837.92,22694.32,4086.1,2536.62,-1715.4
100,1.0,0.131,0.075,0.0,0.0,1.32,-52.05,-4847.92,-81.92,24010.32,-825.9,531.62,-2945.4
121,1.0,0.035,0.472,0.766,0.106,-2.99,-50.29,-3955.92,-1977.92,24214.32,-6130.9,-1095.38,-2988.4
141,1.0,0.172,0.898,1.0,0.0,-6.38,-50.25,-3687.92,-4133.92,24138.32,-11480.9,-665.38,-3736.4
161,1.0,0.11,0.699,0.967,0.152,-9.02,-51.37,-3699.92,-5969.92,24566.32,-16751.9,-314.38,-4599.4
181,1.0,0.0,0.0,0.0,0.0,-11.45,-53.41,-2987.92,-7145.92,23626.32,-20753.9,-478.38,-4334.4
201,0.702,0.534,0.0,0.0,0.0,-14.01,-56.03,-2147.92,-7137.92,22442.32,-24398.9,-1709.38,-3597.4
221,0.614,0.0,0.0,0.288,0.222,-16.21,-59.22,-1687.92,-8261.92,20670.32,-26128.9,-365.38,-944.4
240,0.656,0.213,1.0,0.402,0.871,-17.86,-62.32,-2543.92,-8129.92,20446.32,-27006.9,926.62,2345.6
261,0.526,0.432,0.0,0.001,0.0,-19.4,-64.93,-1955.92,-6329.92,19198.32,-24994.9,3081.62,6107.6
281,0.354,0.261,0.0,0.412,0.987,-20.57,-67.53,-2119.92,-6189.92,18006.32,-24429.9,5107.62,12269.6
301,0.364,0.637,0.0,0.0,0.0,-21.53,-71.0,-2587.92,-7945.92,16502.32,-28127.9,4474.62,16228.6
321,0.457,0.541,0.0,0.9,1.0,-22.62,-75.54,-2083.92,-10813.92,14118.32,-32317.9,2241.62,17816.6
341,0.528,0.0,0.0,0.269,0.152,-23.61,-80.16,-1623.92,-11673.92,12338.32,-32317.9,2551.62,18190.6
361,0.521,0.261,0.189,0.546,0.198,-24.3,-84.13,-1751.92,-12013.92,11670.32,-28941.9,3821.62,19444.6
381,0.614,0.035,0.0,0.632,0.338,-24.66,-87.32,-1999.92,-11553.92,10902.32,-24334.9,5877.62,20924.6
401,0.624,0.233,0.955,0.718,0.0,-24.6,-89.88,-2127.92,-11833.92,10282.32,-20513.9,8362.62,21990.6
421,0.781,1.0,1.0,0.383,0.338,-24.31,-91.77,-2359.92,-11061.92,11078.32,-17907.9,10139.62,22168.6
441,0.793,0.226,1.0,0.0,0.106,-23.83,-93.33,-3291.92,-10625.92,11522.32,-17093.9,10934.62,21923.6
461,0.43,0.199,0.983,0.154,1.0,-23.62,-94.96,-4031.92,-11117.92,12110.32,-18871.9,8217.62,20858.6
481,0.474,0.0,0.841,0.594,0.0,-24.26,-96.81,-4283.92,-11605.92,11438.32,-20195.9,1985.62,21685.6
501,0.658,0.0,1.0,0.0,0.0,-25.67,-98.52,-3859.92,-12069.92,9338.32,-17496.9,-3482.38,23651.6
521,0.489,0.699,0.0,0.0,0.57,-27.48,-99.8,-3111.92,-12277.92,7778.32,-13470.9,-6201.38,24797.6
541,0.695,0.158,1.0,0.603,0.964,-29.49,-100.77,-3947.92,-11909.92,7814.32,-11763.9,-8955.38,26318.6
561,0.629,0.377,1.0,0.871,0.825,-31.75,-101.74,-4163.92,-12037.92,7106.32,-11470.9,-11722.38,27514.6
581,0.273,0.664,0.0,0.431,0.0,-34.14,-102.74,-4511.92,-10057.92,6594.32,-11048.9,-13062.38,28680.6
601,0.54,0.466,0.0,0.441,0.175,-36.4,-103.9,-5719.92,-8789.92,6578.32,-12205.9,-13738.38,29114.6
621,0.423,0.398,0.472,0.307,0.43,-38.67,-105.46,-6427.92,-7501.92,6210.32,-14644.9,-14933.38,28570.6
641,0.428,0.753,0.0,0.584,0.639,-40.86,-107.47,-7735.92,-5865.92,6390.32,-18001.9,-16108.38,27557.6
661,0.558,0.261,1.0,0.02,0.987,-42.89,-110.38,-8147.92,-5561.92,4454.32,-21979.9,-16748.38,26243.6
681,0.457,0.254,0.33,0.728,1.0,-44.62,-114.06,-10195.92,-3845.92,3954.32,-26589.9,-17955.38,24874.6
701,0.589,0.856,0.0,0.0,0.0,-45.14,-117.71,-15063.92,-1025.92,5430.32,-27736.9,-19470.38,24784.6
721,0.54,0.575,0.0,0.852,0.0,-43.26,-121.71,-20727.92,4214.08,6650.32,-25264.9,-21385.38,26296.6
741,0.575,1.0,0.0,0.804,1.0,-42.54,-126.83,-20575.92,4558.08,4690.32,-28455.9,-26637.38,27635.6
761,0.621,0.254,0.047,0.871,0.152,-43.0,-133.01,-20011.92,5670.08,3450.32,-32317.9,-33137.38,19215.6
781,0.445,0.774,0.813,0.986,0.0,-42.32,-135.76,-19923.92,4714.08,9038.32,-32317.9,-33858.38,11315.6
801,0.432,1.0,0.0,1.0,0.0,-42.17,-136.35,-22143.92,1266.08,12218.32,-32317.9,-33108.38,9131.6
821,0.55,0.514,0.983,1.0,1.0,-40.77,-132.87,-22599.92,778.08,16346.32,-13412.9,-22077.38,7380.6
841,0.509,0.788,0.274,1.0,1.0,-38.01,-125.91,-25315.92,4334.08,21222.32,-68.9,-13054.38,4892.6
861,0.513,0.336,0.0,0.011,0.0,-34.4,-117.64,-28099.92,7602.08,22698.32,4855.1,-8083.38,2499.6
880,0.587,1.0,0.983,0.9,1.0,-30.19,-109.03,-28063.92,9038.08,21866.32,6870.1,-3874.38,114.6
900,0.469,0.5,1.0,1.0,0.0,-25.05,-100.5,-27479.92,9098.08,18602.32,7531.1,924.62,-2904.4
920,0.43,0.781,0.0,0.622,0.175,-18.75,-92.39,-27099.92,8178.08,16018.32,8478.1,7213.62,-5475.4
941,0.406,0.829,0.0,0.708,0.222,-11.05,-85.28,-26447.92,6914.08,12886.32,10291.1,14613.62,-7547.4
961,0.516,0.808,0.87,0.0,1.0,-2.45,-82.32,-26479.92,5058.08,10074.32,10720.1,22054.62,-8928.4
980,0.379,1.0,0.983,1.0,0.222,6.01,-80.77,-27391.92,2086.08,7902.32,11366.1,28022.62,-9780.4
1000,0.435,0.055,1.0,1.0,1.0,13.65,-79.98,-27243.92,674.08,4778.32,13130.1,28275.62,-10379.4
1020,0.354,0.117,1.0,0.565,0.57,20.4,-79.61,-28287.92,922.08,3110.32,14157.1,24985.62,-10668.4
1040,0.464,0.35,0.983,0.288,0.0,26.11,-79.22,-26959.92,678.08,3210.32,14304.1,20928.62,-10989.4
1061,0.288,0.247,0.0,0.498,0.0,30.07,-78.94,-23311.92,-1405.92,498.32,14903.1,17124.62,-10130.4
1081,0.398,0.425,0.0,1.0,0.082,33.3,-79.4,-20983.92,-2741.92,-3805.68,12801.1,18484.62,-9922.4
1101,0.379,0.274,0.0,0.536,0.894,36.7,-80.3,-21291.92,-3993.92,-3581.68,8750.1,20845.62,-10149.4
1120,0.489,0.671,0.0,1.0,0.0,39.98,-80.75,-22647.92,-4733.92,918.32,7015.1,18680.62,-9118.4
1140,0.55,0.233,1.0,0.097,1.0,41.68,-81.17,-20123.92,-5313.92,-709.68,8614.1,12407.62,-5164.4
1161,0.437,0.965,0.0,0.871,0.477,42.18,-81.77,-15035.92,-7245.92,-5617.68,10056.1,11353.62,-2509.4
1181,0.403,0.356,0.0,0.0,0.0,42.94,-82.93,-16127.92,-7765.92,-5053.68,5657.1,12568.62,-4035.4
1201,0.349,0.418,0.87,0.269,1.0,42.99,-84.66,-18207.92,-9129.92,-1573.68,-1954.9,5922.62,-3949.4
1220,0.663,0.0,1.0,0.288,0.245,41.91,-86.6,-17459.92,-9185.92,-3793.68,-2065.9,-678.38,-278.4
1240,0.43,0.637,0.529,0.0,0.523,40.24,-88.34,-17335.92,-8481.92,-4553.68,-54.9,-4834.38,1530.6
1261,0.592,0.5,0.0,0.575,1.0,38.17,-90.84,-17447.92,-8169.92,-6129.68,-4378.9,-7966.38,2056.6
1281,0.406,0.281,0.0,0.154,0.894,35.5,-94.25,-18147.92,-9185.92,-5377.68,-12419.9,-13203.38,2231.6
1301,0.445,0.0,0.132,0.288,0.0,32.33,-97.49,-19767.92,-8077.92,-1941.68,-14117.9,-19783.38,4746.6
1321,0.486,0.904,1.0,0.565,0.0,29.46,-100.02,-23787.92,-3653.92,1470.32,-10307.9,-25453.38,9618.6
1341,0.614,0.493,0.643,0.89,0.245,26.43,-103.39,-27703.92,66.08,-185.68,-10793.9,-32120.38,13850.6
1361,0.516,0.309,0.0,1.0,0.802,23.09,-108.43,-27463.92,906.08,-2837.68,-20132.9,-33858.38,14614.6
1381,0.648,0.336,1.0,0.469,0.384,19.45,-114.07,-22663.92,-157.92,-1101.68,-28399.9,-33858.38,8297.6
1401,0.562,0.507,0.0,0.498,0.662,16.27,-115.89,-22611.92,-3425.92,8094.32,-20393.9,-33858.38,7358.6
1421,0.643,0.801,0.0,0.393,0.0,15.37,-113.3,-24523.92,-849.92,15114.32,-5482.9,-22487.38,3669.6
1441,0.624,0.972,0.217,0.0,1.0,16.41,-107.74,-29495.92,2618.08,19654.32,4366.1,-12196.38,2273.6
1460,0.513,0.247,0.189,0.575,0.129,17.88,-101.02,-28323.92,5050.08,20862.32,8915.1,-8119.38,424.6
1480,0.511,1.0,1.0,0.823,0.013,19.91,-93.61,-27123.92,7034.08,19222.32,12020.1,-4968.38,-1095.4
1500,0.717,0.452,1.0,0.747,1.0,23.01,-86.63,-26083.92,6930.08,15486.32,12275.1,-700.38,-2872.4
1520,0.742,0.377,0.0,0.402,0.546,27.3,-80.9,-26779.92,6262.08,12882.32,11479.1,4706.62,-4783.4
1541,0.521,0.904,0.359,0.297,0.5,32.45,-76.83,-27907.92,5854.08,11318.32,11023.1,10142.62,-5680.4
1560,0.486,0.459,0.075,0.431,0.709,37.55,-74.86,-29231.92,4166.08,10530.32,8296.1,12512.62,-6057.4
1580,0.283,0.0,0.0,0.393,0.0,41.61,-75.1,-28947.92,1546.08,7994.32,3924.1,10272.62,-5987.4
1600,0.496,0.418,1.0,0.575,0.0,44.43,-76.57,-27979.92,-1013.92,4314.32,1157.1,7538.62,-4920.4
1620,0.58,0.5,0.387,1.0,0.0,46.9,-78.16,-27163.92,-1821.92,2734.32,1610.1,8058.62,-3823.4
1640,0.643,1.0,1.0,0.737,0.593,49.56,-79.44,-27891.92,-1793.92,3374.32,2577.1,9346.62,-2628.4
1660,0.499,0.705,0.018,0.097,0.0,51.94,-80.68,-28591.92,-1341.92,4478.32,1404.1,7041.62,-1232.4
1680,0.462,0.35,0.983,0.0,0.0,53.49,-82.41,-27115.92,-1477.92,3214.32,-253.9,3822.62,-610.4
1700,0.447,0.274,1.0,1.0,0.0,54.88,-84.08,-26907.92,-1065.92,3710.32,-562.9,2854.62,-11.4
1720,0.459,0.685,0.983,0.288,1.0,56.18,-85.65,-26683.92,-1341.92,4166.32,-1176.9,2865.62,256.6
1740,0.597,1.0,0.0,0.957,1.0,57.47,-87.12,-27227.92,-1013.92,5178.32,-2228.9,2170.62,270.6
1760,0.435,0.965,0.0,0.613,0.0,58.46,-88.35,-27015.92,-1485.92,5526.32,-1938.9,913.62,396.6
1780,0.356,0.993,1.0,1.0,0.523,59.31,-89.39,-26511.92,-1217.92,5822.32,-1220.9,375.62,-99.4
1800,0.511,0.172,1.0,1.0,0.222,60.1,-90.22,-26555.92,-1085.92,6042.32,-261.9,46.62,-214.4
1820,0.501,0.528,0.0,0.0,0.0,60.8,-90.96,-26299.92,-1325.92,5930.32,161.1,118.62,-453.4
1840,0.624,0.0,0.501,0.23,0.0,61.58,-91.73,-26511.92,-1113.92,6174.32,-417.9,536.62,-718.4
1860,0.393,0.712,0.0,0.0,0.0,62.22,-92.53,-27011.92,-2297.92,5894.32,-1112.9,706.62,-886.4
1880,0.577,0.733,0.245,0.0,0.0,62.77,-93.05,-27279.92,-2497.92,6134.32,73.1,284.62,-553.4
1900,0.42,0.582,1.0,0.823,0.0,63.25,-93.5,-26927.92,-1641.92,5698.32,1867.1,-345.38,-273.4
1920,0.391,1.0,1.0,0.565,0.57,63.84,-94.08,-26651.92,-317.92,5750.32,2044.1,-327.38,-173.4
1940,0.408,0.603,0.756,0.46,0.0,64.48,-94.85,-26575.92,-117.92,5858.32,661.1,100.62,-61.4
1960,0.342,0.411,0.018,0.144,0.0,65.07,-95.82,-26715.92,-657.92,5602.32,-881.9,461.62,-194.4
1980,0.636,0.322,0.0,0.728,0.222,65.61,-96.74,-26867.92,-1037.92,5434.32,-825.9,735.62,-290.4
2000,0.565,0.0,0.0,0.0,0.0,66.09,-97.46,-26979.92,-1049.92,5558.32,134.1,469.62,-61.4
2020,0.489,1.0,0.898,0.144,0.0,66.56,-98.16,-26971.92,-453.92,5526.32,818.1,104.62,24.6
2040,0.45,0.514,0.0,0.555,0.662,66.98,-98.9,-26843.92,-189.92,5294.32,1079.1,-62.38,148.6
2060,0.462,0.391,0.586,0.594,0.686,67.42,-99.61,-26931.92,-153.92,5518.32,857.1,125.62,-11.4
2080,0.278,0.548,1.0,0.967,0.0,67.84,-100.35,-26923.92,-305.92,5386.32,563.1,324.62,-190.4
2100,0.356,0.138,0.813,1.0,0.0,68.29,-101.06,-27111.92,-61.92,5662.32,324.1,303.62,47.6
2120,0.432,0.746,0.0,0.527,0.0,68.62,-101.86,-26959.92,-217.92,5566.32,-366.9,34.62,234.6
2140,0.528,0.213,1.0,0.0,0.0,68.84,-102.61,-26815.92,-545.92,5714.32,-804.9,-302.38,242.6
2160,0.496,0.028,0.274,0.0,0.0,69.05,-103.12,-26675.92,-609.92,5802.32,427.1,-95.38,18.6
2180,0.383,0.09,0.813,0.441,0.0,69.3,-103.6,-26335.92,-141.92,5634.32,1302.1,239.62,-302.4
2200,0.472,0.48,0.983,1.0,0.0,69.61,-104.2,-26551.92,30.08,5666.32,592.1,503.62,-376.4
2220,0.175,0.555,0.0,0.135,0.964,69.78,-105.01,-26595.92,-493.92,5326.32,-913.9,263.62,-272.4
2240,0.352,0.021,1.0,0.0,1.0,69.84,-105.82,-26535.92,-917.92,5342.32,-1533.9,98.62,-230.4
2260,0.349,0.206,0.0,0.135,0.0,69.89,-106.36,-26827.92,-1293.92,5610.32,-747.9,97.62,-258.4
2280,0.396,0.398,0.245,0.0,0.291,69.93,-106.64,-26563.92,-945.92,5838.32,878.1,-19.38,-437.4
2300,0.432,0.705,0.075,0.441,0.0,70.04,-106.9,-26519.92,-333.92,5662.32,1795.1,83.62,-411.4
2320,0.43,0.042,0.0,0.173,0.0,70.21,-107.37,-26375.92,-97.92,5594.32,787.1,557.62,-532.4
2340,0.347,0.138,0.0,0.183,0.593,70.35,-107.97,-26819.92,-609.92,5678.32,-941.9,652.62,-403.4
2360,0.334,0.055,0.0,1.0,0.0,70.4,-108.46,-26931.92,-1265.92,5802.32,-1086.9,529.62,-402.4
2380,0.278,0.0,0.0,0.747,0.0,70.39,-108.77,-26879.92,-1297.92,5682.32,145.1,364.62,-354.4
2400,0.128,1.0,1.0,0.192,0.222,70.37,-109.03,-26835.92,-1029.92,5406.32,1198.1,300.62,-460.4
2420,0.329,0.596,1.0,0.622,0.0,70.38,-109.26,-26995.92,-729.92,5430.32,1593.1,245.62,-591.4
2440,0.567,1.0,0.33,0.116,0.0,70.33,-109.41,-26759.92,-941.92,5598.32,1609.1,127.62,-456.4
2460,0.413,0.336,0.0,0.144,0.0,70.22,-109.66,-26831.92,-857.92,5502.32,1199.1,-215.38,-316.4
2480,0.398,0.439,0.472,1.0,0.964,70.02,-109.97,-26747.92,-933.92,5554.32,520.1,-704.38,-144.4
2500,0.354,0.0,0.784,0.0,1.0,69.81,-110.32,-26623.92,-913.92,5546.32,295.1,-678.38,-207.4
2520,0.425,0.329,1.0,0.0,1.0,69.66,-110.52,-26491.92,-965.92,5958.32,371.1,-351.38,-256.4
2540,0.369,0.37,0.0,0.0,1.0,69.58,-110.76,-26551.92,-637.92,5974.32,367.1,-76.38,-271.4
2560,0.484,0.685,0.557,0.794,0.0,69.53,-110.97,-26639.92,-741.92,6026.32,282.1,126.62,-99.4
2580,0.462,1.0,0.302,0.336,0.593,69.49,-111.16,-26735.92,-701.92,6202.32,78.1,150.62,86.6
2600,0.393,0.452,0.0,0.536,0.0,69.41,-111.4,-26487.92,-653.92,5926.32,285.1,100.62,60.6
2620,0.518,0.302,0.359,1.0,1.0,69.35,-111.7,-26403.92,-549.92,5722.32,293.1,436.62,-181.4
2640,0.325,1.0,0.047,0.603,0.0,69.36,-112.03,-26639.92,-605.92,5658.32,70.1,830.62,-288.4
2660,0.253,0.678,0.955,0.144,0.198,69.34,-112.42,-26767.92,-717.92,5542.32,-345.9,824.62,-113.4
2680,0.31,0.486,0.0,0.89,0.338,69.25,-112.79,-26927.92,-1037.92,5686.32,-790.9,443.62,102.6
2700,0.604,0.179,1.0,1.0,0.0,69.04,-113.1,-26891.92,-1173.92,5618.32,-549.9,-54.38,115.6
2720,0.359,0.514,0.0,0.23,0.0,68.82,-113.27,-26807.92,-1105.92,5638.32,365.1,-213.38,-50.4
2740,0.486,0.0,0.416,0.0,0.523,68.69,-113.36,-26567.92,-557.92,5842.32,1020.1,72.62,-242.4
2760,0.486,0.534,1.0,0.0,1.0,68.61,-113.51,-26611.92,-477.92,6062.32,239.1,249.62,-207.4
2780,0.298,0.254,0.0,0.0,0.0,68.47,-113.74,-26775.92,-829.92,5958.32,-478.9,121.62,2.6
2800,0.464,0.0,1.0,0.412,0.0,68.31,-113.88,-26695.92,-881.92,6074.32,-182.9,64.62,-59.4
2820,0.477,0.63,1.0,0.699,0.0,68.16,-113.97,-26571.92,-721.92,6010.32,430.1,111.62,-226.4
2840,0.371,0.904,0.0,0.823,0.222,68.05,-114.1,-26371.92,-441.92,5786.32,733.1,391.62,-465.4
2860,0.278,0.534,0.983,0.909,1.0,67.99,-114.27,-26563.92,-481.92,5878.32,251.1,692.62,-462.4
2880,0.214,0.336,0.444,0.0,0.129,67.82,-114.56,-26671.92,-1149.92,5522.32,-562.9,585.62,-318.4
2900,0.285,0.295,0.983,0.852,0.106,67.6,-114.81,-26767.92,-1389.92,5422.32,-466.9,420.62,-183.4
2920,0.276,1.0,1.0,0.288,0.0,67.36,-114.91,-26811.92,-1317.92,5654.32,227.1,196.62,-77.4
2940,0.327,0.562,1.0,0.106,1.0,67.16,-114.98,-26687.92,-749.92,5686.32,789.1,6.62,-38.4
2960,0.413,0.61,0.075,0.288,0.0,67.0,-115.09,-26519.92,-373.92,5758.32,744.1,47.62,-108.4
2980,0.396,0.445,1.0,0.919,0.0,66.84,-115.23,-26563.92,-541.92,5722.32,454.1,167.62,25.6
