timestamp,flex_1,flex_2,flex_3,flex_4,flex_5,kalman_pitch,kalman_roll,acc_x,acc_y,acc_z,gyro_x,gyro_y,gyro_z
0,1.0,0.0,0.012,0.674,0.0,20.41,25.66,-264.16,-2651.52,17461.52,3138.34,3134.98,398.42
19,1.0,0.098,0.0,0.549,0.813,-1.96,6.67,-536.16,-1211.52,17985.52,6976.34,6545.98,554.42
39,1.0,0.081,1.0,0.0,0.298,-11.72,0.37,-1468.16,676.48,19393.52,9254.34,9716.98,1739.42
59,1.0,0.069,0.0,0.0,0.266,-16.03,-4.14,-2888.16,-403.52,20389.52,6792.34,10114.98,1941.42
78,1.0,0.075,0.286,0.138,1.0,-17.95,-6.81,-4108.16,-115.52,22305.52,4021.34,7912.98,1455.42
98,1.0,0.0,1.0,0.236,1.0,-19.46,-9.5,-2928.16,-2011.52,23781.52,3134.34,6417.98,2926.42
119,1.0,0.098,0.468,0.368,1.0,-20.2,-11.42,-2440.16,-3639.52,24721.52,7540.34,8227.98,7434.42
140,1.0,0.087,0.0,0.0,1.0,-20.15,-11.18,-3088.16,-2407.52,25881.52,16136.34,10621.98,13972.42
159,1.0,0.0,0.0,0.0,0.588,-18.98,-9.95,-5352.16,-3063.52,29605.52,21202.34,11530.98,17778.42
179,0.761,0.0,0.347,0.069,0.813,-18.35,-7.55,-3852.16,1632.48,29589.52,21609.34,11624.98,18825.42
199,0.32,0.104,0.772,0.0,0.362,-17.16,-5.59,-1632.16,1632.48,30525.52,19805.34,18441.98,16820.42
219,0.376,0.551,0.0,0.0,0.0,-14.2,-3.63,-4528.16,3108.48,31977.52,18459.34,27141.98,13828.42
239,0.396,0.0,0.559,0.0,0.845,-9.98,-1.55,-9340.16,5256.48,31841.52,17524.34,31514.98,11119.42
259,0.416,0.104,0.0,0.0,0.33,-5.85,-0.11,-10772.16,4592.48,31217.52,14979.34,31514.98,9675.42
279,0.383,0.0,0.347,0.0,1.0,-1.88,1.26,-11604.16,3572.48,31465.52,16638.34,31514.98,9184.42
299,0.399,0.001,0.468,0.062,0.459,1.48,3.62,-10192.16,5948.48,28321.52,21158.34,31514.98,8195.42
319,0.514,0.0,0.286,0.25,0.298,5.31,6.35,-13736.16,7232.48,28401.52,23202.34,31514.98,7421.42
339,0.268,0.075,0.65,0.027,0.0,9.66,9.08,-18228.16,8416.48,29041.52,23061.34,31514.98,7790.42
359,0.379,0.0,0.468,0.215,1.0,13.45,11.87,-16316.16,8552.48,27265.52,24260.34,31514.98,6296.42
379,0.383,0.144,0.742,0.0,0.813,16.84,14.44,-15196.16,9160.48,24097.52,22180.34,31514.98,1296.42
399,0.386,0.127,0.0,0.013,0.33,20.16,16.64,-15460.16,9336.48,21753.52,19480.34,31514.98,-2892.58
419,0.488,0.184,0.0,0.326,0.459,23.83,18.66,-17304.16,8772.48,19853.52,19196.34,31514.98,-4408.58
439,0.58,0.207,0.894,0.0,0.105,28.27,20.99,-19824.16,9504.48,16377.52,17868.34,31514.98,-4786.58
459,0.35,0.069,0.012,0.034,1.0,32.84,23.43,-20000.16,8896.48,13285.52,16673.34,29691.98,-4113.58
479,0.366,0.109,0.802,0.166,0.652,36.96,26.45,-19788.16,8824.48,11197.52,16554.34,25562.98,-2419.58
499,0.393,0.241,0.62,0.145,1.0,40.56,30.68,-19852.16,9080.48,9221.52,17334.34,21412.98,6.42
519,0.682,0.132,1.0,0.097,0.201,43.66,37.11,-20764.16,9236.48,6273.52,17827.34,17923.98,1968.42
539,0.623,0.035,1.0,0.0,0.427,45.72,43.63,-22096.16,11040.48,4705.52,17091.34,14534.98,2993.42
559,0.468,0.0,0.316,0.166,1.0,46.87,50.04,-22132.16,11948.48,3193.52,15572.34,11361.98,2699.42
579,0.435,0.0,0.0,0.0,0.072,47.52,55.76,-23600.16,11492.48,3177.52,12093.34,6119.98,2151.42
599,0.715,0.115,0.103,0.0,0.0,47.35,60.81,-23788.16,11724.48,3725.52,10994.34,249.98,3322.42
619,0.643,0.087,0.286,0.0,1.0,46.05,65.28,-24692.16,13972.48,4693.52,13494.34,-6355.02,6374.42
639,0.603,0.167,0.0,0.0,0.266,43.62,69.73,-22424.16,16020.48,4425.52,15486.34,-10041.02,7786.42
659,0.435,0.035,0.0,0.0,0.0,40.42,72.04,-19804.16,13164.48,9661.52,14561.34,-16063.02,7388.42
679,0.498,0.046,0.498,0.097,0.298,34.94,70.94,-17412.16,9816.48,19493.52,13339.34,-25081.02,5791.42
700,0.587,0.0,0.802,0.292,0.0,28.17,69.13,-14320.16,10580.48,24853.52,10101.34,-30158.02,1440.42
719,0.521,0.023,0.559,0.0,0.0,20.72,65.79,-9176.16,9984.48,27193.52,584.34,-31376.02,-6866.58
739,0.212,0.121,1.0,0.097,0.813,13.71,61.14,-8836.16,7548.48,32237.52,-5944.66,-31606.02,-10571.58
759,0.235,0.127,0.0,0.069,1.0,7.83,57.41,-11676.16,9112.48,30737.52,-2628.66,-28882.02,-6675.58
779,0.366,0.327,0.0,0.0,0.0,4.25,55.1,-17772.16,12816.48,26417.52,1113.34,-21759.02,-3962.58
799,0.485,0.213,0.0,0.034,0.0,3.14,52.48,-26280.16,12412.48,23953.52,-2335.66,-15454.02,-6129.58
819,0.3,0.23,0.62,0.166,0.459,3.55,49.98,-25476.16,11432.48,20609.52,-3118.66,-7371.02,-5545.58
839,0.258,0.0,0.377,0.09,0.0,4.53,48.69,-19168.16,14180.48,17325.52,-2227.66,2895.98,-2008.58
858,0.429,0.281,0.0,0.187,0.362,6.04,48.44,-18004.16,13924.48,15929.52,3028.34,7755.98,5038.42
879,0.435,0.0,0.468,0.097,0.459,7.63,48.46,-19200.16,14756.48,16461.52,4527.34,7566.98,9282.42
898,0.228,0.018,1.0,0.215,1.0,8.81,48.51,-20532.16,16064.48,16505.52,3378.34,4178.98,7681.42
919,0.393,0.098,1.0,0.02,1.0,9.41,48.36,-19880.16,16468.48,16221.52,1264.34,1290.98,2038.42
939,0.449,0.0,0.742,0.027,0.0,9.77,47.66,-20244.16,15824.48,17229.52,-816.66,-602.02,-2393.58
960,0.458,0.15,1.0,0.194,0.717,10.19,46.54,-21072.16,14428.48,18145.52,-1397.66,-1450.02,-3241.58
979,0.449,0.087,0.0,0.083,0.427,10.84,45.59,-20804.16,14520.48,17929.52,-1009.66,402.98,-2124.58
998,0.521,0.0,1.0,0.02,0.298,11.82,44.81,-21772.16,14620.48,17917.52,-279.66,1671.98,-409.58
1019,0.425,0.018,0.316,0.208,0.298,12.68,44.17,-21896.16,14368.48,17765.52,567.34,780.98,1851.42
1039,0.425,0.184,0.286,0.264,0.0,13.18,43.86,-20128.16,14680.48,17317.52,1688.34,514.98,3071.42
1059,0.574,0.201,0.681,0.0,0.0,13.8,43.73,-20024.16,15432.48,17049.52,1700.34,1763.98,1590.42
1079,0.59,0.15,0.134,0.201,1.0,14.61,43.42,-20792.16,15352.48,16637.52,-38.66,2065.98,-1000.58
1099,0.527,0.121,0.286,0.0,0.0,15.35,42.99,-21092.16,14960.48,16221.52,-1158.66,1026.98,-2109.58
1119,0.452,0.144,0.0,0.0,1.0,15.85,42.55,-20704.16,14416.48,16277.52,-717.66,-290.02,-1482.58
1139,0.399,0.167,1.0,0.0,0.523,16.16,42.2,-20140.16,14624.48,16549.52,-198.66,-535.02,-868.58
1159,0.442,0.195,0.894,0.208,0.298,16.62,41.89,-20688.16,14904.48,16733.52,-195.66,43.98,-1078.58
1179,0.481,0.167,0.0,0.111,0.0,17.18,41.61,-21252.16,14712.48,16741.52,75.34,12.98,-1033.58
1199,0.514,0.069,0.711,0.027,0.845,17.63,41.32,-20900.16,14340.48,16817.52,383.34,-300.02,-888.58
1219,0.465,0.184,0.407,0.041,0.395,17.92,41.01,-20500.16,14372.48,17073.52,348.34,-708.02,-637.58
1239,0.287,0.0,1.0,0.048,0.845,18.14,40.74,-20132.16,14532.48,17145.52,426.34,-617.02,-429.58
1259,0.511,0.104,0.0,0.145,0.33,18.47,40.46,-20792.16,14568.48,17189.52,211.34,-565.02,-639.58
1279,0.458,0.442,1.0,0.132,0.781,18.84,40.09,-21232.16,14372.48,17097.52,-476.66,-950.02,-1313.58
1299,0.468,0.161,1.0,0.0,0.0,19.19,39.74,-21316.16,14516.48,16973.52,-723.66,-1089.02,-1806.58
1318,0.475,0.207,0.0,0.118,0.652,19.54,39.4,-21488.16,14100.48,16901.52,-472.66,-1521.02,-1600.58
1339,0.406,0.018,0.195,0.062,1.0,19.87,39.09,-21028.16,13800.48,16825.52,-142.66,-1311.02,-694.58
1359,0.399,0.213,0.377,0.097,0.813,20.2,38.75,-20968.16,13584.48,17169.52,184.34,-1018.02,241.42
1379,0.416,0.081,0.134,0.0,0.008,20.55,38.53,-21116.16,13920.48,17161.52,400.34,-904.02,891.42
1399,0.419,0.385,0.0,0.0,0.717,20.87,38.29,-21164.16,14004.48,17193.52,86.34,-1095.02,837.42
1419,0.409,0.23,0.134,0.055,0.0,21.09,38.11,-21092.16,14188.48,17089.52,76.34,-1542.02,919.42
1439,0.445,0.018,0.0,0.0,0.362,21.28,38.01,-21316.16,14668.48,17449.52,392.34,-1616.02,1070.42
1459,0.416,0.0,0.0,0.0,0.33,21.47,37.87,-21348.16,14680.48,17697.52,257.34,-1497.02,574.42
1479,0.419,0.092,0.468,0.083,0.942,21.7,37.69,-21304.16,14552.48,17773.52,140.34,-1133.02,111.42
1499,0.498,0.035,0.286,0.083,0.233,22.0,37.57,-21640.16,14740.48,17913.52,368.34,-889.02,365.42
1519,0.521,0.195,0.255,0.452,0.0,22.24,37.52,-21316.16,15056.48,17877.52,440.34,-763.02,447.42
1538,0.485,0.121,0.0,0.062,0.298,22.52,37.42,-21360.16,14856.48,17945.52,292.34,-563.02,71.42
1559,0.363,0.0,0.316,0.069,0.0,22.86,37.3,-21452.16,14760.48,18013.52,224.34,-226.02,-151.58
1579,0.429,0.087,0.0,0.0,0.137,23.22,37.13,-21404.16,14500.48,17993.52,109.34,-60.02,-327.58
1598,0.432,0.109,0.59,0.208,0.201,23.56,37.05,-21332.16,14620.48,17805.52,256.34,-62.02,6.42
1619,0.439,0.121,0.468,0.006,0.781,23.85,37.0,-21236.16,14604.48,17725.52,396.34,-225.02,443.42
1639,0.478,0.0,0.0,0.347,0.717,24.01,36.95,-20764.16,14592.48,17789.52,416.34,-548.02,629.42
1659,0.534,0.075,0.0,0.0,0.0,24.21,36.92,-20844.16,14668.48,17949.52,527.34,-241.02,442.42
1679,0.412,0.115,0.012,0.438,0.0,24.46,36.82,-20708.16,14416.48,17833.52,226.34,203.98,-256.58
1699,0.468,0.0,1.0,0.104,0.523,24.82,36.71,-21048.16,14356.48,17741.52,19.34,548.98,-328.58
1719,0.327,0.144,0.0,0.0,1.0,25.12,36.64,-20944.16,14276.48,17505.52,34.34,169.98,168.42
1739,0.291,0.184,0.742,0.104,0.717,25.26,36.66,-20448.16,14620.48,17585.52,364.34,-53.02,675.42
1759,0.442,0.201,0.0,0.326,0.0,25.51,36.73,-20996.16,14788.48,17689.52,587.34,231.98,644.42
1779,0.462,0.069,0.863,0.152,0.974,25.71,36.78,-20680.16,14564.48,17329.52,282.34,-2.02,39.42
1799,0.491,0.018,0.0,0.09,0.878,25.78,36.86,-19936.16,14564.48,17357.52,514.34,81.98,-251.58
1819,0.524,0.023,1.0,0.0,1.0,26.11,36.95,-21008.16,14828.48,17741.52,694.34,891.98,-447.58
1839,0.485,0.092,0.0,0.104,0.813,26.43,36.96,-21460.16,14620.48,17589.52,173.34,331.98,-461.58
1859,0.416,0.052,0.0,0.257,0.491,26.46,37.0,-21008.16,14740.48,17497.52,94.34,-1075.02,460.42
1879,0.452,0.075,1.0,0.0,0.0,26.22,37.03,-20460.16,14736.48,17309.52,-137.66,-2487.02,975.42
1899,0.363,0.218,0.833,0.104,0.62,25.82,37.01,-19472.16,14500.48,17805.52,189.34,-2324.02,869.42
1918,0.356,0.138,0.62,0.062,0.072,25.71,37.15,-19844.16,14920.48,17601.52,644.34,-930.02,-159.58
1939,0.35,0.081,0.681,0.132,0.459,25.97,37.11,-21104.16,14692.48,17889.52,-52.66,287.98,-1260.58
1959,0.468,0.109,0.286,0.055,0.62,26.27,36.98,-21264.16,14168.48,17945.52,-168.66,250.98,-1030.58
1979,0.504,0.0,1.0,0.111,0.459,26.43,36.98,-20828.16,14444.48,17881.52,342.34,-89.02,14.42
1999,0.304,0.218,1.0,0.083,0.169,26.5,36.99,-20284.16,14104.48,17589.52,427.34,-283.02,516.42
2019,0.416,0.029,0.0,0.257,1.0,26.6,37.14,-20252.16,14488.48,17561.52,992.34,92.98,840.42
2039,0.472,0.0,0.894,0.104,0.0,26.83,37.3,-20752.16,14736.48,17901.52,1122.34,644.98,475.42
2059,0.32,0.167,1.0,0.452,0.0,27.13,37.41,-21240.16,14780.48,17869.52,705.34,766.98,-96.58
2079,0.175,0.121,0.0,0.0,0.0,27.32,37.43,-21196.16,14520.48,17801.52,272.34,-32.02,81.42
2098,0.31,0.195,0.0,0.417,0.459,27.27,37.49,-20352.16,14344.48,17545.52,507.34,-903.02,823.42
2118,0.291,0.092,0.0,0.0,0.298,27.2,37.6,-19944.16,14532.48,17709.52,771.34,-408.02,907.42
2139,0.31,0.115,0.0,0.0,0.588,27.42,37.72,-21028.16,14944.48,17845.52,543.34,579.98,164.42
2159,0.422,0.018,0.954,0.076,0.459,27.68,37.8,-21252.16,14756.48,17553.52,220.34,442.98,-266.58
2179,0.373,0.081,1.0,0.25,0.878,27.76,37.87,-20584.16,14564.48,17453.52,220.34,-128.02,26.42
2199,0.222,0.207,0.377,0.0,0.781,27.71,37.93,-19864.16,14372.48,17353.52,265.34,-241.02,280.42
2219,0.212,0.012,0.255,0.201,0.0,27.79,38.06,-20040.16,14696.48,17369.52,415.34,506.98,276.42
2239,0.31,0.104,0.0,0.0,1.0,28.04,38.15,-20780.16,14764.48,17645.52,323.34,1038.98,-123.58
2258,0.37,0.47,0.073,0.299,0.0,28.29,38.24,-21212.16,14928.48,17685.52,208.34,811.98,-312.58
2278,0.31,0.075,0.742,0.034,0.974,28.42,38.35,-21072.16,14840.48,17421.52,150.34,7.98,-19.58
2298,0.31,0.413,0.0,0.083,0.233,28.34,38.38,-20220.16,14516.48,17477.52,23.34,-550.02,248.42
2319,0.324,0.018,1.0,0.083,0.0,28.3,38.45,-20036.16,14528.48,17417.52,187.34,-184.02,224.42
2339,0.182,0.109,0.59,0.0,1.0,28.44,38.58,-20892.16,14980.48,17693.52,444.34,483.98,69.42
2359,0.31,0.19,0.62,0.118,0.33,28.59,38.74,-21192.16,15088.48,17621.52,411.34,298.98,69.42
2379,0.274,0.132,0.0,0.299,0.105,28.58,38.84,-20444.16,14676.48,17341.52,236.34,-289.02,252.42
2399,0.356,0.0,0.438,0.097,0.427,28.54,38.93,-20204.16,14668.48,17481.52,270.34,-157.02,393.42
2419,0.281,0.0,0.62,0.09,1.0,28.62,39.05,-20796.16,14992.48,17597.52,213.34,179.98,142.42
2439,0.31,0.109,0.0,0.055,0.459,28.67,39.17,-20852.16,14944.48,17497.52,259.34,-65.02,97.42
2459,0.297,0.172,0.438,0.215,0.459,28.63,39.31,-20448.16,14908.48,17469.52,343.34,-336.02,198.42
2479,0.304,0.0,0.0,0.0,1.0,28.57,39.38,-20384.16,14692.48,17581.52,259.34,-402.02,144.42
2499,0.324,0.081,1.0,0.034,1.0,28.5,39.49,-20088.16,14552.48,17365.52,432.34,-294.02,325.42
2519,0.333,0.276,0.438,0.0,1.0,28.53,39.61,-20444.16,14728.48,17545.52,511.34,80.98,423.42
2539,0.304,0.385,0.438,0.194,0.974,28.59,39.76,-20768.16,15040.48,17541.52,457.34,139.98,433.42
2559,0.36,0.115,0.438,0.278,0.266,28.58,39.96,-20640.16,15188.48,17409.52,519.34,-225.02,525.42
2579,0.3,0.23,1.0,0.0,0.362,28.5,40.09,-20396.16,15024.48,17577.52,401.34,-451.02,421.42
2599,0.205,0.201,0.316,0.312,0.427,28.44,40.2,-20348.16,14936.48,17441.52,245.34,-331.02,139.42
2619,0.347,0.201,1.0,0.145,0.33,28.39,40.29,-20232.16,15016.48,17597.52,131.34,-76.02,-240.58
2639,0.31,0.0,1.0,0.0,0.942,28.48,40.37,-20720.16,14864.48,17517.52,156.34,208.98,-404.58
2659,0.307,0.172,0.498,0.0,0.974,28.53,40.41,-20784.16,14972.48,17833.52,108.34,138.98,-280.58
2679,0.353,0.109,0.59,0.994,0.298,28.51,40.43,-20512.16,14696.48,17577.52,5.34,-284.02,51.42
2699,0.271,0.0,0.286,0.18,0.0,28.41,40.5,-20196.16,14792.48,17689.52,327.34,-381.02,407.42
2719,0.3,0.0,0.498,0.765,0.298,28.39,40.66,-20304.16,15108.48,17657.52,606.34,130.98,317.42
2739,0.419,0.115,0.195,0.09,0.878,28.49,40.76,-20816.16,15052.48,17809.52,411.34,431.98,-95.58
2759,0.314,0.74,0.286,0.0,0.749,28.53,40.84,-20664.16,14980.48,17629.52,210.34,135.98,-138.58
2779,0.327,0.069,0.772,0.027,1.0,28.46,40.87,-20256.16,14756.48,17569.52,26.34,-304.02,53.42
2799,0.205,0.0,1.0,0.02,1.0,28.36,40.94,-20192.16,14856.48,17637.52,235.34,-368.02,390.42
2819,0.304,0.201,0.0,0.138,0.845,28.3,41.07,-20280.16,15084.48,17689.52,531.34,-117.02,439.42
2838,0.218,0.115,0.0,0.0,0.298,28.35,41.18,-20552.16,14992.48,17753.52,508.34,333.98,31.42
2859,0.287,0.15,0.62,0.326,1.0,28.41,41.24,-20540.16,15060.48,17661.52,76.34,455.98,-529.58
2878,0.317,0.172,0.954,0.0,1.0,28.43,41.27,-20356.16,14816.48,17445.52,-149.66,155.98,-451.58
2898,0.353,0.253,0.772,0.138,1.0,28.4,41.36,-20344.16,14888.48,17505.52,300.34,-86.02,271.42
2918,0.343,0.075,0.012,0.0,0.813,28.33,41.5,-20224.16,14924.48,17593.52,669.34,-157.02,740.42
2938,0.251,0.253,0.468,0.0,0.0,28.32,41.65,-20316.16,15092.48,17597.52,614.34,145.98,379.42
2958,0.406,0.0,0.286,0.0,0.0,28.35,41.72,-20408.16,14968.48,17541.52,186.34,361.98,-434.58
2979,0.251,0.087,0.286,0.0,0.137,28.36,41.78,-20216.16,14860.48,17301.52,-40.66,210.98,-648.58
