timestamp,flex_1,flex_2,flex_3,flex_4,flex_5,kalman_pitch,kalman_roll,acc_x,acc_y,acc_z,gyro_x,gyro_y,gyro_z
0,0.906,0.179,0.0,0.622,0.268,45.98,-99.18,508.08,2198.08,18950.32,18.1,792.62,-206.4
20,1.0,0.247,1.0,0.25,0.268,16.72,-77.64,8.08,1334.08,20190.32,534.1,2528.62,462.6
40,1.0,0.37,0.0,0.278,0.0,1.94,-66.16,-1131.92,1182.08,20506.32,-320.9,2230.62,797.6
61,1.0,0.138,0.075,0.412,0.129,-8.12,-58.77,-223.92,1330.08,20374.32,724.1,-439.38,873.6
80,1.0,0.021,0.444,0.383,1.0,-15.32,-52.94,-771.92,1978.08,20070.32,3540.1,-1892.38,1009.6
101,1.0,0.0,0.217,0.183,0.0,-20.43,-48.07,-1203.92,2382.08,20666.32,3913.1,-2012.38,1868.6
120,1.0,0.315,0.501,0.23,1.0,-24.28,-44.18,-523.92,2326.08,21018.32,3813.1,-34.38,1753.6
140,1.0,0.028,0.416,0.24,0.0,-27.19,-41.27,-423.92,2678.08,20554.32,1315.1,2820.62,-288.4
161,1.0,0.254,0.075,0.269,0.0,-28.68,-39.61,-1983.92,2514.08,21086.32,-4544.9,5509.62,-3386.4
181,1.0,0.746,0.0,0.747,0.0,-30.0,-39.18,-2151.92,2782.08,20458.32,-11393.9,5664.62,-6418.4
201,0.634,0.425,0.387,0.565,0.338,-31.16,-40.17,-2403.92,1358.08,19834.32,-15588.9,4748.62,-5905.4
221,0.688,0.281,0.0,0.555,0.129,-32.49,-41.37,-1479.92,2010.08,20238.32,-19730.9,3799.62,-5714.4
241,0.749,0.0,0.132,0.058,0.43,-33.76,-43.8,-247.92,550.08,19218.32,-23705.9,4881.62,-6455.4
261,1.0,0.0,0.359,1.0,0.57,-34.57,-46.77,-363.92,1226.08,19746.32,-31096.9,6849.62,-7929.4
281,0.71,0.09,0.0,0.737,0.0,-34.69,-50.0,-1759.92,214.08,19882.32,-32317.9,8503.62,-7940.4
301,0.71,0.445,0.0,0.508,1.0,-34.5,-54.64,-2015.92,-4037.92,16954.32,-32317.9,8908.62,-4527.4
321,0.67,0.199,1.0,0.422,0.0,-34.05,-59.75,-1579.92,-8789.92,15822.32,-32317.9,7903.62,87.6
341,0.479,0.5,0.0,0.001,0.106,-33.4,-64.99,-1043.92,-11949.92,14342.32,-32317.9,8404.62,5961.6
361,0.626,0.131,0.0,0.555,0.43,-32.69,-70.12,-439.92,-12797.92,13162.32,-32317.9,9302.62,10642.6
381,0.768,0.377,0.728,0.125,0.0,-32.11,-75.0,-807.92,-12437.92,12590.32,-32317.9,8642.62,14234.6
401,0.58,0.233,1.0,0.297,1.0,-31.94,-79.75,-1071.92,-12185.92,11614.32,-32317.9,5964.62,16534.6
421,0.585,0.247,0.501,0.374,0.0,-32.23,-84.53,-679.92,-11353.92,9778.32,-32317.9,3780.62,17256.6
441,0.356,0.404,0.0,0.374,0.871,-32.67,-89.04,-995.92,-11105.92,9046.32,-31515.9,2423.62,17199.6
461,0.383,0.0,0.898,0.46,1.0,-33.17,-93.35,-2295.92,-11593.92,8418.32,-31294.9,303.62,16913.6
481,0.408,0.377,0.0,0.039,0.245,-34.34,-97.82,-2123.92,-10309.92,6770.32,-31862.9,-3811.38,15559.6
501,0.437,0.0,0.16,0.412,0.964,-35.89,-102.38,-1935.92,-9789.92,5010.32,-31891.9,-6666.38,14463.6
521,0.418,0.37,0.0,0.613,0.106,-37.63,-107.1,-2039.92,-8789.92,3238.32,-32250.9,-8502.38,13681.6
541,0.396,0.911,0.0,0.919,0.0,-39.44,-111.56,-1983.92,-9365.92,2390.32,-31673.9,-10245.38,13098.6
561,0.435,0.179,0.104,0.0,1.0,-41.26,-115.06,-3431.92,-9541.92,3206.32,-27706.9,-12339.38,13479.6
581,0.435,0.11,0.075,0.393,0.57,-43.05,-117.5,-4215.92,-7717.92,3062.32,-20789.9,-12849.38,15172.6
601,0.423,0.35,0.0,0.489,0.0,-44.85,-119.36,-3395.92,-6205.92,1842.32,-15175.9,-12421.38,15702.6
621,0.437,0.0,0.0,0.622,0.222,-46.49,-121.03,-2503.92,-5177.92,826.32,-12595.9,-10941.38,14357.6
641,0.518,0.377,0.0,0.393,0.918,-47.73,-122.87,-1667.92,-5849.92,86.32,-14087.9,-8843.38,12132.6
661,0.435,0.24,0.245,0.307,0.454,-48.64,-125.03,-3787.92,-6397.92,286.32,-17628.9,-9314.38,10506.6
681,0.435,0.199,0.955,0.527,0.0,-50.15,-127.46,-3735.92,-7981.92,-745.68,-20426.9,-14949.38,10406.6
701,0.425,0.274,1.0,0.0,0.222,-52.2,-129.64,-3983.92,-8425.92,-2345.68,-18523.9,-20389.38,11743.6
721,0.41,0.206,0.018,0.288,0.0,-54.83,-131.11,-3635.92,-6809.92,-2305.68,-13271.9,-24437.38,14540.6
741,0.835,0.199,0.075,0.68,1.0,-57.72,-132.39,-6039.92,-4745.92,-3029.68,-10195.9,-29561.38,17211.6
761,0.474,0.322,0.813,0.402,0.0,-60.41,-134.02,-9931.92,-3289.92,-3133.68,-11583.9,-33858.38,20640.6
781,0.692,0.206,0.0,1.0,0.0,-62.83,-136.22,-9987.92,-3049.92,-4797.68,-14558.9,-33858.38,20077.6
801,0.773,0.138,0.33,0.422,0.0,-64.7,-138.43,-12111.92,-1993.92,-3417.68,-15331.9,-33858.38,19460.6
821,0.673,0.445,0.0,0.45,0.732,-65.7,-140.07,-15267.92,-385.92,-1601.68,-11854.9,-33858.38,18385.6
842,0.658,1.0,0.132,0.775,1.0,-66.18,-139.9,-15983.92,-525.92,3606.32,-6736.9,-33858.38,14659.6
861,0.742,0.507,0.983,0.546,0.871,-66.3,-137.64,-15123.92,2550.08,7622.32,2398.1,-33858.38,10254.6
881,0.702,0.664,0.926,0.651,0.964,-62.47,-131.28,-20459.92,7250.08,10042.32,8674.1,-33858.38,6656.6
901,0.626,0.897,0.0,0.68,0.0,-59.7,-120.98,-22859.92,9350.08,14166.32,7291.1,-31868.38,4532.6
921,0.744,0.61,0.0,1.0,0.709,-56.56,-112.94,-23123.92,7534.08,17370.32,3309.1,-24945.38,933.6
941,0.668,1.0,0.983,1.0,0.0,-52.53,-105.4,-25619.92,6194.08,20674.32,4822.1,-16817.38,-1319.4
961,0.592,0.37,0.983,0.422,0.222,-47.56,-97.25,-25947.92,6642.08,21706.32,10040.1,-8873.38,-3008.4
981,0.695,1.0,0.444,1.0,0.5,-41.49,-88.29,-26051.92,8794.08,20466.32,13807.1,-1382.38,-4179.4
1001,0.643,0.575,0.586,0.661,0.964,-34.45,-79.66,-26367.92,9562.08,18646.32,11788.1,4861.62,-5438.4
1021,0.592,1.0,0.444,0.861,1.0,-26.6,-72.85,-24691.92,7410.08,15818.32,7290.1,9778.62,-7199.4
1041,0.585,0.979,0.359,0.9,0.941,-17.76,-69.43,-23843.92,4742.08,12006.32,5526.1,15510.62,-8942.4
1061,0.499,0.0,0.0,0.699,1.0,-8.65,-67.99,-24871.92,2326.08,9942.32,7114.1,22245.62,-10138.4
1081,0.526,0.644,0.075,0.412,0.964,0.29,-66.59,-27527.92,750.08,9530.32,8986.1,24496.62,-10110.4
1101,0.535,0.685,0.0,0.852,0.0,8.07,-66.26,-25659.92,-221.92,6182.32,11032.1,22940.62,-10533.4
1121,0.567,0.261,0.132,0.278,0.082,15.54,-67.14,-28563.92,1114.08,3978.32,9699.1,21527.62,-11902.4
1141,0.513,0.042,0.0,0.355,0.0,21.19,-68.97,-24759.92,-4469.92,-1377.68,3477.1,21100.62,-13156.4
1161,0.499,0.569,0.274,0.584,0.0,26.68,-70.62,-25907.92,-5437.92,1714.32,339.1,20285.62,-11214.4
1181,0.594,0.315,0.0,0.0,0.0,31.64,-71.68,-25131.92,-5449.92,2510.32,3146.1,19009.62,-9137.4
1201,0.447,0.37,0.586,0.0,0.616,35.48,-73.21,-21635.92,-4325.92,-1049.68,4874.1,17313.62,-10303.4
1221,0.379,0.281,0.0,1.0,0.314,38.5,-75.5,-19731.92,-7057.92,-4781.68,387.1,16926.62,-11286.4
1241,0.482,0.404,0.104,0.641,0.0,41.14,-77.92,-19411.92,-8781.92,-1921.68,-4473.9,15803.62,-9657.4
1260,0.41,0.336,0.0,0.316,0.0,43.47,-79.33,-19187.92,-9881.92,-45.68,-451.9,14974.62,-5379.4
1281,0.45,0.452,0.0,0.336,0.013,44.67,-80.6,-16819.92,-9005.92,-1961.68,2599.1,10687.62,-3147.4
1301,0.462,0.261,0.0,0.814,0.0,45.1,-82.52,-14527.92,-7893.92,-6053.68,1712.1,8536.62,-3360.4
1321,0.435,0.165,0.699,0.594,0.222,45.34,-84.73,-14343.92,-9613.92,-5717.68,-1960.9,7902.62,-3486.4
1341,0.44,0.117,0.132,0.431,0.0,45.52,-86.73,-14343.92,-9945.92,-4205.68,-2286.9,7834.62,-502.4
1361,0.467,0.247,0.075,0.355,0.0,45.01,-88.63,-13683.92,-9309.92,-4825.68,-1218.9,4019.62,1479.6
1381,0.435,0.35,0.0,0.259,0.222,43.49,-90.74,-13243.92,-8945.92,-5669.68,-2260.9,-2472.38,3213.6
1401,0.467,0.48,0.217,0.527,0.0,41.24,-92.97,-12735.92,-8341.92,-5825.68,-3121.9,-7286.38,5271.6
1421,0.398,0.356,0.983,0.173,0.0,38.89,-95.33,-13055.92,-8089.92,-7017.68,-3640.9,-8848.38,5654.6
1441,0.41,0.582,0.0,0.976,0.268,36.21,-97.79,-14243.92,-8613.92,-6281.68,-5737.9,-12819.38,6209.6
1462,0.437,0.548,1.0,1.0,0.941,32.76,-100.18,-15911.92,-8081.92,-4525.68,-6794.9,-20638.38,7797.6
1482,0.356,0.179,0.132,1.0,0.0,28.88,-102.88,-18039.92,-6925.92,-6549.68,-7342.9,-26668.38,12437.6
1502,0.634,0.37,0.0,0.422,0.0,24.89,-105.58,-19179.92,-6573.92,-4861.68,-9039.9,-30098.38,14788.6
1521,0.634,0.534,0.104,0.259,0.0,21.83,-107.4,-23047.92,-6973.92,-2265.68,-6068.9,-29175.38,18253.6
1541,0.744,0.712,0.0,0.861,0.0,18.89,-107.99,-22015.92,-4913.92,3030.32,-2125.9,-31077.38,16989.6
1561,0.71,0.685,0.0,0.747,0.0,17.05,-106.61,-22127.92,-589.92,7982.32,5566.1,-30140.38,16356.6
1581,0.619,0.466,0.217,0.852,0.523,17.38,-102.89,-23291.92,5054.08,10902.32,9243.1,-26112.38,13525.6
1601,0.678,0.035,0.0,0.823,1.0,18.43,-96.08,-25199.92,8138.08,13222.32,3832.1,-21081.38,10229.6
1621,0.715,0.534,0.047,0.861,0.477,19.6,-91.36,-26379.92,7374.08,16934.32,-4673.9,-15703.38,7374.6
1642,0.742,0.486,0.0,1.0,0.106,21.12,-87.3,-26491.92,6002.08,19014.32,-5135.9,-10782.38,4772.6
1661,0.636,0.623,1.0,1.0,0.222,23.1,-82.18,-27543.92,6634.08,19814.32,1597.1,-7252.38,3003.6
1681,0.859,0.808,0.018,0.46,0.454,25.67,-76.17,-27163.92,7794.08,17822.32,6621.1,-4485.38,1110.6
1700,0.634,0.651,0.614,1.0,0.0,29.18,-70.27,-26151.92,8106.08,14554.32,5713.1,-785.38,-1065.4
1721,0.57,0.466,0.104,1.0,0.245,33.65,-66.58,-26503.92,6550.08,12134.32,2848.1,3547.62,-2818.4
1741,0.898,0.582,0.33,1.0,0.175,38.26,-66.52,-27055.92,3994.08,9978.32,1803.1,7100.62,-3607.4
1761,0.626,0.815,0.557,0.536,0.0,42.36,-67.68,-27963.92,1866.08,7794.32,1346.1,7759.62,-3804.4
1780,0.587,0.781,0.0,1.0,0.384,45.82,-69.47,-27987.92,554.08,5806.32,402.1,6925.62,-3533.4
1801,0.648,0.658,0.33,0.613,0.454,48.67,-71.5,-27863.92,-693.92,4230.32,-66.9,5875.62,-2672.4
1820,0.609,1.0,0.0,0.833,0.0,51.27,-73.58,-28531.92,-221.92,4030.32,120.1,4393.62,-1686.4
1841,0.653,0.233,0.0,0.728,0.732,53.43,-75.56,-27691.92,-89.92,3898.32,763.1,2704.62,-1045.4
1861,0.531,0.705,0.0,1.0,0.964,55.5,-77.5,-27707.92,458.08,4554.32,180.1,2077.62,-825.4
1880,0.636,0.788,0.075,1.0,1.0,57.47,-79.49,-27731.92,302.08,5254.32,-2010.9,1761.62,-700.4
1901,0.751,0.712,0.189,0.9,1.0,59.32,-81.25,-28231.92,-385.92,6102.32,-3406.9,1520.62,-589.4
1921,0.619,0.911,0.075,0.775,0.0,60.96,-82.59,-28099.92,-961.92,6614.32,-2470.9,1077.62,-227.4
1941,0.558,0.678,0.0,0.594,0.106,62.53,-83.51,-27987.92,-673.92,6834.32,-47.9,925.62,-135.4
1960,0.614,0.794,0.387,0.833,0.894,63.99,-84.43,-28231.92,-593.92,6274.32,956.1,768.62,62.6
1981,0.555,0.733,0.0,0.747,1.0,65.36,-85.5,-27883.92,-789.92,5910.32,348.1,1155.62,-264.4
2000,0.668,0.753,0.0,0.756,0.894,66.63,-86.51,-27635.92,-1213.92,6126.32,-241.9,1444.62,-521.4
2021,0.553,0.322,0.926,0.756,0.222,67.75,-87.13,-27239.92,-1601.92,6534.32,1227.1,1365.62,-782.4
2041,0.621,0.808,0.047,0.871,1.0,68.8,-87.22,-26523.92,-789.92,6522.32,5399.1,1101.62,-908.4
2061,0.513,0.685,0.0,0.756,0.871,70.1,-87.1,-26555.92,1690.08,6654.32,9349.1,640.62,-447.4
2081,0.614,0.555,0.0,0.919,0.825,71.47,-87.87,-26303.92,3674.08,6158.32,8622.1,166.62,-267.4
2101,0.634,0.226,0.0,0.785,0.384,72.65,-89.53,-26019.92,2462.08,5594.32,1184.1,1092.62,-1660.4
2121,0.545,1.0,1.0,0.909,0.338,73.73,-91.18,-26407.92,254.08,6114.32,-3503.9,2405.62,-2678.4
2141,0.55,0.746,0.0,0.0,0.0,74.85,-92.05,-26983.92,-533.92,6938.32,-972.9,3253.62,-3100.4
2161,0.575,0.692,0.217,0.794,0.964,75.87,-92.48,-27299.92,-189.92,6530.32,2988.1,2557.62,-2405.4
2181,0.616,0.664,0.983,0.613,0.0,76.66,-92.95,-27271.92,70.08,6166.32,3706.1,1411.62,-1729.4
2201,0.587,0.575,0.104,0.699,0.338,77.1,-93.9,-26227.92,-505.92,5546.32,1004.1,882.62,-1993.4
2221,0.528,0.315,0.0,0.747,0.546,77.52,-95.02,-26211.92,-1269.92,5538.32,-987.9,1739.62,-2078.4
2242,0.484,0.897,0.529,0.871,0.0,78.06,-96.05,-26743.92,-1797.92,5854.32,-1682.9,2705.62,-2063.4
2261,0.607,0.774,0.0,0.622,0.0,78.55,-97.07,-27575.92,-1725.92,5886.32,-1832.9,2170.62,-1441.4
2280,0.567,0.288,0.189,0.976,0.0,78.75,-98.22,-27315.92,-2061.92,5202.32,-2073.9,1133.62,-469.4
2300,0.521,0.555,0.189,0.976,0.987,78.8,-99.45,-26683.92,-2061.92,4754.32,-2197.9,877.62,-146.4
2321,0.604,0.651,0.0,0.718,1.0,78.88,-100.51,-26423.92,-1849.92,4906.32,-1404.9,1283.62,-30.4
2341,0.553,0.596,0.0,0.919,0.0,79.05,-101.36,-26779.92,-1785.92,4806.32,-23.9,1818.62,19.6
2361,0.533,0.575,0.302,0.9,0.778,79.22,-102.16,-27043.92,-989.92,4834.32,841.1,1240.62,279.6
2381,0.614,1.0,0.0,0.9,0.57,79.2,-103.12,-26995.92,-1041.92,4090.32,750.1,528.62,692.6
2401,0.555,0.692,0.047,1.0,0.0,79.11,-104.24,-26871.92,-1721.92,4266.32,-1504.9,706.62,436.6
2421,0.597,0.138,0.898,0.89,0.0,79.02,-105.14,-27399.92,-2281.92,5038.32,-1958.9,605.62,666.6
2441,0.535,1.0,1.0,0.422,0.454,78.85,-105.66,-26947.92,-1985.92,5214.32,432.1,156.62,1027.6
2461,0.592,0.466,0.0,0.689,0.848,78.76,-105.93,-26783.92,-765.92,5134.32,3190.1,-27.38,1416.6
2481,0.567,0.336,1.0,0.651,0.0,78.8,-106.3,-26979.92,266.08,5242.32,3454.1,-65.38,1755.6
2500,0.639,0.22,0.0,0.9,0.0,78.86,-107.25,-26971.92,514.08,5162.32,-145.9,49.62,1167.6
2520,0.513,0.856,0.075,0.919,0.871,78.86,-108.31,-27015.92,-441.92,5418.32,-2664.9,403.62,655.6
2541,0.482,0.76,0.16,0.374,0.0,78.87,-108.97,-27203.92,-1005.92,5522.32,-980.9,971.62,455.6
2561,0.553,0.685,0.529,0.651,0.0,78.88,-109.3,-26751.92,-357.92,5350.32,2094.1,907.62,353.6
2580,0.535,0.466,0.245,0.842,0.0,78.85,-109.64,-26943.92,-57.92,4898.32,3110.1,577.62,553.6
2601,0.538,0.623,0.813,0.88,0.0,78.66,-110.29,-26663.92,-529.92,4734.32,768.1,306.62,-159.4
2621,0.513,0.678,0.33,0.641,0.0,78.44,-110.74,-26899.92,-1293.92,5606.32,-371.9,204.62,-523.4
2641,0.504,0.507,0.0,0.469,1.0,78.16,-110.8,-26519.92,-1389.92,6158.32,1186.1,66.62,-443.4
2661,0.565,0.918,0.075,0.536,0.0,77.94,-110.68,-26491.92,-937.92,6054.32,3003.1,88.62,-328.4
2681,0.45,0.569,0.444,0.546,0.0,77.87,-110.58,-26611.92,-133.92,6254.32,3169.1,388.62,-395.4
2700,0.526,0.534,0.0,0.947,0.0,77.77,-110.76,-26599.92,-365.92,6346.32,937.1,387.62,-805.4
2720,0.489,0.575,0.132,1.0,0.198,77.56,-111.05,-26519.92,-1173.92,6254.32,-350.9,585.62,-925.4
2740,0.312,0.883,0.132,0.584,1.0,77.45,-111.09,-26839.92,-1205.92,6558.32,675.1,1013.62,-680.4
2761,0.513,0.733,0.0,0.842,0.0,77.46,-111.01,-27103.92,-425.92,6750.32,1751.1,992.62,-249.4
2781,0.457,0.425,1.0,0.594,0.407,77.52,-111.2,-27155.92,346.08,6334.32,1426.1,936.62,38.6
2800,0.511,0.541,0.444,0.584,0.523,77.54,-111.8,-26899.92,306.08,5710.32,-88.9,1217.62,-132.4
2821,0.567,0.842,0.0,0.431,0.198,77.54,-112.46,-27043.92,-193.92,5638.32,-1144.9,1556.62,-600.4
2841,0.486,0.883,0.0,1.0,0.987,77.42,-112.83,-27111.92,-985.92,5818.32,-377.9,1437.62,-715.4
2860,0.469,0.425,0.387,0.393,0.268,77.16,-112.96,-26871.92,-889.92,5514.32,1844.1,783.62,-325.4
2881,0.54,0.562,0.075,0.661,0.0,76.85,-113.01,-26651.92,-245.92,5114.32,3649.1,280.62,331.6
2901,0.496,0.685,0.075,0.594,0.059,76.62,-113.29,-26595.92,238.08,4926.32,3078.1,523.62,429.6
2921,0.513,0.671,0.0,0.871,0.175,76.42,-113.84,-26547.92,258.08,5262.32,554.1,688.62,-16.4
2941,0.553,1.0,0.359,0.794,0.0,76.21,-114.33,-26631.92,-185.92,5366.32,106.1,855.62,-236.4
2961,0.462,0.685,0.784,0.594,1.0,75.95,-114.5,-26535.92,-641.92,5354.32,1769.1,1037.62,-442.4
2981,0.509,0.733,0.813,0.766,0.0,75.68,-114.51,-26355.92,-465.92,5102.32,3487.1,1162.62,-485.4
