timestamp,flex_1,flex_2,flex_3,flex_4,flex_5,kalman_pitch,kalman_roll,acc_x,acc_y,acc_z,gyro_x,gyro_y,gyro_z
0,0.84,0.01,1.0,0.536,0.28,88.58,-51.43,-1378.32,1882.72,18449.6,-46.0,2954.82,-342.24
19,1.0,0.35,0.0,1.0,0.0,37.49,-38.75,-1226.32,1378.72,18117.6,252.0,4259.82,-279.24
39,1.0,0.056,1.0,0.666,0.155,16.36,-32.99,-1578.32,1362.72,18725.6,856.0,5023.82,203.76
59,1.0,0.078,0.585,0.803,0.0,4.56,-29.26,-1790.32,1914.72,18689.6,618.0,4136.82,114.76
79,1.0,0.705,0.0,0.885,1.0,-2.84,-26.87,-2194.32,2038.72,18861.6,-688.0,3098.82,-689.24
99,1.0,0.0,0.22,0.543,1.0,-8.42,-24.74,-1706.32,2850.72,18769.6,-1197.0,2517.82,-1024.24
119,1.0,0.0,1.0,1.0,1.0,-12.28,-23.33,-3066.32,2934.72,18933.6,-2911.0,197.82,-230.24
139,1.0,0.0,0.732,0.687,0.0,-15.67,-23.77,-3082.32,438.72,18917.6,-4720.0,-3763.18,637.76
159,1.0,0.0,0.39,0.837,0.0,-19.57,-22.9,-2618.32,3338.72,18369.6,-4782.0,-8286.18,-837.24
180,1.0,0.131,0.0,0.885,1.0,-23.48,-23.5,-2286.32,1686.72,18197.6,-8395.0,-12046.18,-1885.24
200,1.0,0.048,0.341,0.357,0.0,-27.49,-25.45,-1610.32,-213.28,16813.6,-11025.0,-13951.18,-2448.24
219,1.0,1.0,0.317,0.0,0.0,-30.89,-27.48,837.68,-1989.28,17325.6,-9427.0,-10506.18,-2468.24
239,0.846,1.0,0.0,1.0,0.0,-33.59,-27.7,-1042.32,998.72,18305.6,-6091.0,-10115.18,-3339.24
259,0.579,0.0,1.0,0.899,1.0,-35.98,-28.29,-1518.32,-453.28,17021.6,-3878.0,-9649.18,-3971.24
279,0.97,0.0,0.78,1.0,1.0,-39.19,-27.77,65.68,2014.72,15469.6,-697.0,-11109.18,-2653.24
299,0.748,0.123,0.512,1.0,1.0,-42.74,-27.65,1617.68,2166.72,14417.6,-2378.0,-11811.18,-2561.24
319,0.733,0.0,0.878,0.755,0.0,-45.82,-28.3,1905.68,354.72,15205.6,-3894.0,-12363.18,-3348.24
339,1.0,0.003,0.0,1.0,0.0,-48.94,-28.21,189.68,1910.72,15241.6,-2974.0,-15268.18,-5182.24
359,1.0,0.343,0.0,1.0,1.0,-53.09,-26.68,2241.68,5230.72,12833.6,-1655.0,-17033.18,-4141.24
379,1.0,0.327,0.0,1.0,1.0,-56.98,-27.42,3801.68,2442.72,12193.6,-5440.0,-16385.18,-1638.24
399,1.0,0.267,1.0,1.0,0.0,-60.12,-29.09,3513.68,1242.72,11757.6,-7587.0,-13570.18,-2117.24
420,0.976,0.146,0.463,1.0,1.0,-62.34,-31.23,4069.68,-1017.28,11693.6,-6132.0,-10308.18,-1926.24
439,0.964,0.018,1.0,1.0,0.0,-64.15,-32.54,3817.68,-61.28,11437.6,-2563.0,-7455.18,-1798.24
459,0.92,0.131,0.268,0.906,0.0,-65.89,-33.58,3821.68,818.72,10529.6,-888.0,-6040.18,-1506.24
479,0.866,1.0,0.659,0.0,1.0,-67.51,-34.48,3937.68,1130.72,10177.6,-112.0,-5248.18,-152.24
499,0.864,0.101,1.0,0.851,1.0,-68.65,-35.72,4369.68,6.72,10449.6,-782.0,-3771.18,457.76
519,0.902,0.0,0.0,1.0,0.0,-69.41,-36.74,4053.68,-333.28,10929.6,-196.0,-2651.18,4.76
539,0.763,0.078,0.732,1.0,0.0,-70.05,-37.1,3021.68,230.72,11593.6,1201.0,-2938.18,525.76
559,0.629,0.0,0.366,0.426,0.0,-71.34,-37.61,3581.68,1330.72,10153.6,1127.0,-4977.18,693.76
579,0.967,0.0,0.0,0.282,0.0,-72.74,-38.44,4173.68,1686.72,9473.6,5.0,-5005.18,798.76
599,1.0,0.395,1.0,1.0,1.0,-73.71,-39.78,4137.68,290.72,9629.6,-776.0,-4365.18,840.76
619,0.819,0.04,1.0,1.0,1.0,-74.31,-41.17,4329.68,-289.28,9593.6,-288.0,-2791.18,267.76
639,0.861,0.562,0.0,1.0,0.0,-74.82,-42.15,4265.68,486.72,9425.6,1137.0,-1551.18,647.76
659,0.751,0.0,0.0,0.618,0.0,-75.25,-43.16,4577.68,1010.72,8985.6,1134.0,-204.18,855.76
679,0.872,0.879,0.0,0.357,1.0,-75.22,-43.77,3673.68,846.72,10133.6,144.0,1179.82,645.76
699,0.964,0.471,0.0,0.7,0.0,-75.2,-44.43,3077.68,718.72,10257.6,-499.0,333.82,545.76
719,0.819,0.32,0.0,1.0,0.0,-75.49,-45.65,3421.68,70.72,9529.6,-959.0,-1832.18,906.76
739,1.0,0.0,0.756,1.0,0.0,-75.95,-47.03,4317.68,70.72,8973.6,-533.0,-2337.18,954.76
759,0.831,0.0,0.0,1.0,0.0,-76.15,-48.41,4653.68,-193.28,8913.6,-400.0,-898.18,1117.76
779,0.825,0.297,0.0,1.0,0.0,-75.88,-49.62,4021.68,-957.28,9561.6,-382.0,527.82,1049.76
799,0.757,0.139,0.659,1.0,0.0,-75.47,-50.64,3785.68,-1209.28,9937.6,-152.0,823.82,1306.76
819,0.665,0.0,1.0,0.0,0.0,-74.95,-51.76,3533.68,-2257.28,10209.6,-466.0,79.82,1902.76
839,0.872,0.373,1.0,1.0,1.0,-74.5,-52.92,3909.68,-2897.28,10861.6,-1826.0,-1063.18,3243.76
859,0.567,0.0,0.0,1.0,1.0,-73.93,-54.33,4433.68,-3949.28,11893.6,-4851.0,-1413.18,5902.76
879,0.754,0.305,0.0,1.0,0.0,-72.96,-56.3,4905.68,-6385.28,12789.6,-8485.0,-695.18,10035.76
899,1.0,0.0,1.0,1.0,1.0,-71.76,-59.05,5865.68,-7125.28,11685.6,-12340.0,1697.82,13998.76
919,1.0,0.01,0.0,1.0,1.0,-69.71,-62.69,4945.68,-9013.28,11665.6,-18482.0,5835.82,16574.76
939,1.0,0.358,1.0,0.666,1.0,-67.03,-67.0,4197.68,-13741.28,11169.6,-22099.0,7309.82,20538.76
959,1.0,0.0,1.0,0.152,1.0,-64.49,-70.99,4909.68,-16009.28,11021.6,-20768.0,6567.82,24440.76
979,0.733,0.048,1.0,0.618,1.0,-62.18,-74.78,5125.68,-14477.28,11193.6,-21682.0,6697.82,28006.76
999,0.947,0.35,1.0,1.0,0.0,-59.72,-79.55,4729.68,-18209.28,10289.6,-28299.0,6446.82,31287.76
1019,1.0,0.501,0.707,0.556,0.0,-57.24,-84.3,4001.68,-22093.28,9989.6,-29306.0,5374.82,32960.76
1039,0.899,0.569,0.0,1.0,0.652,-54.95,-88.02,4093.68,-21953.28,8245.6,-22754.0,5013.82,32960.76
1059,0.852,0.441,1.0,1.0,1.0,-52.71,-90.99,3821.68,-22829.28,7589.6,-18466.0,4980.82,32960.76
1079,1.0,0.0,0.854,0.0,0.0,-50.47,-93.57,4381.68,-24449.28,6617.6,-16177.0,5537.82,32960.76
1099,1.0,0.0,0.0,1.0,0.0,-48.59,-95.31,3257.68,-22257.28,6789.6,-11649.0,3702.82,32960.76
1119,0.872,0.0,0.415,1.0,0.0,-47.07,-96.64,1777.68,-22973.28,5885.6,-8778.0,684.82,32960.76
1139,0.775,0.199,0.0,1.0,0.0,-45.79,-97.28,1877.68,-20525.28,4681.6,-3435.0,250.82,32960.76
1159,0.778,0.0,0.854,1.0,1.0,-44.22,-96.1,-958.32,-14609.28,7237.6,6229.0,2889.82,32960.76
1179,0.478,0.131,0.439,0.755,0.0,-42.64,-94.4,-2994.32,-11597.28,7973.6,9088.0,2817.82,32960.76
1199,0.769,0.0,0.22,1.0,0.0,-40.84,-92.69,-3710.32,-13289.28,6157.6,12247.0,3440.82,32960.76
1219,0.843,0.72,1.0,1.0,1.0,-39.88,-89.54,-3806.32,-1177.28,7325.6,18801.0,8357.82,32960.76
1239,0.724,0.0,0.366,0.837,1.0,-34.41,-87.11,-13918.32,-2501.28,8441.6,12699.0,14579.82,32960.76
1259,0.647,0.04,0.463,0.261,1.0,-31.71,-86.64,-8790.32,-3941.28,7677.6,2626.0,9705.82,32960.76
1279,0.582,0.0,0.585,1.0,1.0,-29.62,-85.35,-8586.32,-5053.28,5801.6,12794.0,6331.82,32960.76
1299,0.92,0.0,0.659,1.0,1.0,-30.79,-85.79,-10322.32,5698.72,5837.6,26764.0,10026.82,32960.76
1319,0.662,0.0,0.707,1.0,1.0,-26.61,-88.11,-12102.32,3766.72,2337.6,12655.0,12151.82,32960.76
1339,0.778,0.373,1.0,1.0,0.0,-21.69,-91.9,-12918.32,5074.72,3433.6,7202.0,10950.82,32960.76
1359,0.949,0.184,0.659,1.0,1.0,-16.26,-75.55,-14958.32,6370.72,2393.6,13485.0,10133.82,32960.76
1379,0.869,0.101,0.0,1.0,1.0,-12.07,-60.83,-15118.32,8674.72,2101.6,17728.0,5802.82,32960.76
1399,0.701,0.131,1.0,1.0,0.0,-9.34,-46.53,-14494.32,12210.72,-1326.4,21104.0,4711.82,31940.76
1419,0.724,0.0,0.61,1.0,0.0,-6.74,-34.54,-15126.32,15942.72,-2730.4,12604.0,5437.82,23385.76
1439,0.745,0.335,0.0,0.673,0.0,-3.96,-23.96,-16510.32,17578.72,-2734.4,8073.0,6136.82,15985.76
1459,0.493,0.607,0.0,1.0,0.0,-1.82,-13.65,-14670.32,21286.72,-4998.4,9763.0,6285.82,9579.76
1479,0.798,0.0,0.0,0.172,1.0,-0.02,-4.15,-15338.32,23830.72,-4630.4,9106.0,4326.82,1786.76
1499,0.709,0.0,0.732,1.0,0.0,1.29,4.27,-17790.32,26678.72,-3202.4,7010.0,-424.18,-7470.24
1519,0.754,0.086,0.0,1.0,0.0,1.44,11.19,-19226.32,25514.72,-2826.4,-904.0,-9618.18,-19975.24
1539,0.97,0.373,0.78,0.892,0.0,1.15,16.69,-20734.32,20334.72,-1410.4,-9958.0,-16457.18,-32574.24
1559,0.671,0.01,1.0,1.0,1.0,3.05,20.87,-27102.32,9610.72,4053.6,-17676.0,-18647.18,-32574.24
1579,1.0,0.199,0.463,1.0,1.0,3.44,15.03,-32918.32,-1653.28,9261.6,-16864.0,-26761.18,-32574.24
1599,0.709,0.01,0.707,1.0,1.0,1.72,13.74,-24266.32,-3273.28,12401.6,8564.0,-34051.18,-32574.24
1620,0.709,0.101,1.0,1.0,0.0,-0.6,13.81,-18218.32,-13257.28,14521.6,22065.0,-27565.18,-32574.24
1639,0.73,0.01,0.22,1.0,1.0,-1.37,13.42,-25362.32,3518.72,14505.6,461.0,-32598.18,-32574.24
1659,0.591,0.0,0.293,1.0,0.0,-4.54,4.94,-6738.32,-11913.28,3149.6,-24376.0,-22896.18,-22607.24
1679,0.724,0.0,0.0,1.0,0.0,-3.41,-1.32,-18618.32,-26973.28,7601.6,-15882.0,-4352.18,3797.76
1699,0.822,0.275,0.0,0.666,0.0,-1.05,-2.82,-20414.32,-18753.28,15445.6,8511.0,2192.82,10886.76
1719,0.529,0.0,1.0,1.0,0.0,2.97,-4.06,-23426.32,-6185.28,15413.6,3868.0,7280.82,13503.76
1739,0.733,0.0,0.268,1.0,0.0,6.7,-9.58,-22366.32,-8497.28,8709.6,-15872.0,6982.82,19974.76
1759,0.668,0.0,0.634,1.0,0.0,11.18,-15.35,-22482.32,-9541.28,6893.6,-16457.0,13822.82,30835.76
1779,0.641,0.131,0.244,0.645,0.0,16.37,-17.99,-29598.32,-8849.28,13325.6,-4973.0,15770.82,32960.76
1799,0.653,0.0,1.0,0.714,0.0,22.01,-18.82,-27894.32,1706.72,9029.6,3283.0,11540.82,32960.76
1819,0.775,0.146,1.0,0.426,1.0,28.55,-26.16,-26978.32,5062.72,4501.6,-5413.0,15605.82,32960.76
1839,0.683,0.0,0.0,1.0,1.0,34.6,-32.8,-28590.32,1114.72,3845.6,-16651.0,18010.82,32960.76
1859,0.789,0.0,0.0,1.0,0.0,40.68,-35.96,-28174.32,5138.72,6121.6,-6044.0,14961.82,32960.76
1879,0.778,0.0,1.0,1.0,1.0,44.64,-26.89,-24634.32,11654.72,2629.6,4978.0,11184.82,27173.76
1899,0.632,0.0,0.341,1.0,0.0,46.53,-18.69,-21074.32,17778.72,897.6,3769.0,7542.82,20500.76
1919,0.496,0.056,0.0,0.933,1.0,47.67,-11.76,-19898.32,17298.72,393.6,-3812.0,4194.82,16155.76
1939,0.606,0.0,0.829,1.0,1.0,48.09,-4.71,-19262.32,20498.72,-342.4,-289.0,2279.82,12091.76
1959,0.872,0.0,0.171,0.728,0.0,47.62,3.12,-17606.32,25990.72,-1230.4,8141.0,-17.18,6785.76
1979,0.932,0.373,0.0,1.0,0.0,46.85,10.67,-19482.32,28854.72,-1510.4,8994.0,-2921.18,-3662.24
1999,0.786,0.29,0.0,0.879,0.0,45.41,16.34,-22282.32,28122.72,657.6,-307.0,-10050.18,-20528.24
2019,0.532,0.063,1.0,1.0,0.0,43.21,21.03,-22582.32,21334.72,1097.6,-6952.0,-18900.18,-32574.24
2039,0.828,0.0,1.0,0.604,0.0,41.25,25.0,-28938.32,19302.72,6181.6,-4494.0,-24220.18,-32574.24
2059,0.665,0.0,0.366,1.0,1.0,38.74,25.13,-29170.32,8454.72,12989.6,-5981.0,-34051.18,-32574.24
2080,0.709,0.01,0.0,0.796,0.0,34.95,22.34,-20654.32,-2857.28,13261.6,-1251.0,-34051.18,-32574.24
2099,0.621,0.0,0.488,1.0,0.528,31.24,18.69,-25246.32,-12521.28,3017.6,9342.0,-34051.18,-32574.24
2119,0.434,0.0,0.22,1.0,0.0,24.46,28.78,-738.32,8394.72,801.6,15695.0,-22442.18,-32574.24
2140,0.733,0.0,0.0,0.536,0.528,25.02,21.53,-13778.32,-19141.28,15801.6,-24119.0,3300.82,-13694.24
2159,0.653,0.0,0.0,1.0,0.0,26.02,15.71,-18950.32,-26973.28,20113.6,-16881.0,4298.82,4976.76
2179,0.695,0.0,1.0,1.0,0.0,27.56,14.1,-20806.32,-15601.28,17033.6,9284.0,5170.82,4791.76
2199,0.638,0.0,0.341,1.0,0.0,29.78,11.66,-22382.32,-5637.28,14557.6,174.0,4810.82,3282.76
2219,0.798,0.0,1.0,0.536,0.0,32.3,7.2,-24818.32,-7249.28,12713.6,-10992.0,5959.82,3670.76
2239,0.626,0.131,0.415,1.0,1.0,34.76,3.16,-25706.32,-7265.28,11269.6,-7324.0,5302.82,5327.76
2259,0.576,0.0,0.0,1.0,1.0,37.29,0.87,-25758.32,-3473.28,10729.6,1967.0,3637.82,5702.76
2279,0.837,0.0,0.098,0.515,1.0,40.37,-1.21,-24542.32,1230.72,8281.6,3268.0,3096.82,4126.76
2299,0.789,0.0,0.0,1.0,0.0,43.19,-3.9,-25030.32,-465.28,9493.6,-2171.0,4464.82,2806.76
2319,0.861,0.0,0.756,1.0,0.0,45.47,-7.1,-25506.32,-3429.28,8953.6,-2447.0,3898.82,2338.76
2339,0.899,0.0,0.878,1.0,0.0,47.55,-9.64,-25086.32,-2497.28,8509.6,1704.0,2493.82,1177.76
2359,0.594,0.0,0.78,1.0,0.0,49.49,-11.96,-24690.32,-1141.28,8129.6,2666.0,911.82,653.76
2379,0.496,0.327,0.0,0.632,0.0,51.18,-14.8,-24162.32,-1293.28,7285.6,979.0,100.82,1042.76
2399,0.662,0.0,1.0,0.652,1.0,52.65,-17.54,-24406.32,-2325.28,8089.6,-324.0,174.82,1031.76
2419,0.745,0.0,0.537,0.508,1.0,53.81,-20.21,-24166.32,-3181.28,8349.6,-590.0,-277.18,424.76
2439,0.736,0.0,0.707,1.0,0.0,54.83,-22.67,-23958.32,-3397.28,8449.6,249.0,-534.18,-216.24
2459,0.635,0.0,1.0,0.899,0.0,55.93,-24.68,-24098.32,-2573.28,9081.6,1023.0,-357.18,-75.24
2479,0.615,0.463,0.0,0.892,0.652,56.99,-26.93,-24286.32,-2825.28,8849.6,-449.0,-221.18,-99.24
2499,0.766,0.0,0.171,0.577,1.0,57.95,-29.24,-24282.32,-3445.28,8953.6,-1109.0,160.82,-35.24
2519,0.621,0.373,0.0,1.0,1.0,58.91,-31.46,-24658.32,-3785.28,9001.6,-975.0,470.82,223.76
2539,0.671,0.01,0.171,1.0,0.0,59.79,-33.53,-24818.32,-3845.28,9197.6,-750.0,355.82,230.76
2559,0.76,0.29,0.122,0.453,0.0,60.63,-35.42,-24734.32,-3657.28,9101.6,112.0,234.82,310.76
2579,0.546,0.086,0.195,0.844,0.776,61.57,-37.09,-24914.32,-2905.28,9309.6,284.0,520.82,451.76
2599,0.594,0.0,0.0,1.0,1.0,62.42,-39.01,-24474.32,-3141.28,8809.6,-652.0,581.82,675.76
2619,0.683,0.0,0.39,1.0,0.0,63.25,-40.81,-24834.32,-3489.28,8981.6,-444.0,953.82,1000.76
2639,0.715,0.0,1.0,1.0,0.0,64.05,-42.4,-25118.32,-3441.28,9285.6,6.0,891.82,583.76
2659,0.591,0.131,0.415,0.556,1.0,64.79,-43.8,-25434.32,-3121.28,9573.6,235.0,447.82,189.76
2679,0.671,0.0,0.634,1.0,0.0,65.37,-45.17,-25014.32,-2745.28,9329.6,247.0,-511.18,455.76
2699,0.712,0.0,0.463,1.0,0.0,65.81,-46.82,-24542.32,-3157.28,8685.6,-418.0,-700.18,222.76
2719,0.695,0.207,0.0,1.0,0.0,66.32,-48.29,-24678.32,-3301.28,9033.6,-199.0,120.82,155.76
2739,0.529,0.0,0.049,1.0,1.0,66.82,-49.48,-24970.32,-3477.28,9681.6,272.0,400.82,424.76
2759,0.736,0.025,1.0,1.0,0.0,67.24,-50.53,-24694.32,-3153.28,9329.6,1395.0,-25.18,592.76
2779,0.712,0.048,0.756,1.0,0.0,67.71,-51.47,-24774.32,-2325.28,9253.6,1463.0,-358.18,618.76
2799,0.778,0.0,0.146,1.0,0.0,68.18,-52.6,-24586.32,-2277.28,9077.6,232.0,-158.18,598.76
2819,0.653,0.0,0.268,0.467,0.404,68.57,-53.9,-24706.32,-2885.28,8961.6,-527.0,40.82,659.76
2839,0.665,0.0,0.22,1.0,0.0,68.94,-54.9,-24766.32,-2737.28,9493.6,67.0,76.82,348.76
2859,0.668,0.0,0.463,0.755,0.0,69.22,-55.96,-24570.32,-2993.28,9145.6,288.0,-52.18,17.76
2879,0.683,0.025,0.415,1.0,0.0,69.53,-56.81,-24794.32,-2817.28,9297.6,1007.0,1.82,239.76
2899,0.543,0.0,0.0,1.0,1.0,69.91,-57.71,-24670.32,-2373.28,9025.6,699.0,335.82,185.76
2919,0.656,0.0,0.0,0.591,0.0,70.3,-58.67,-24898.32,-2837.28,9293.6,-217.0,920.82,-55.24
2939,0.496,0.131,0.122,0.33,0.0,70.55,-59.7,-24762.32,-3533.28,8933.6,293.0,784.82,-19.24
2959,0.615,0.0,0.073,1.0,1.0,70.83,-60.37,-25010.32,-2309.28,9417.6,625.0,45.82,85.76
2979,0.73,0.0,0.0,0.892,0.0,70.91,-61.46,-24726.32,-3021.28,8761.6,-604.0,-453.18,91.76
