timestamp,flex_1,flex_2,flex_3,flex_4,flex_5,kalman_pitch,kalman_roll,acc_x,acc_y,acc_z,gyro_x,gyro_y,gyro_z
0,0.0,0.049,0.0,0.11,0.11,26.34,26.52,2588.56,-2887.44,11057.52,358.38,1372.9,101.58
21,0.0,0.009,0.0,0.0,0.684,2.19,-2.06,1888.56,-3071.44,11589.52,281.38,1109.9,315.58
41,0.0,0.073,0.0,0.0,0.11,-10.26,-16.43,2548.56,-3103.44,11149.52,163.38,33.9,44.58
61,0.0,0.114,0.711,0.0,0.11,-18.07,-25.16,2980.56,-2983.44,11013.52,-514.62,-157.1,-733.42
81,0.0,0.0,0.0,0.0,0.144,-23.38,-31.14,3348.56,-3067.44,11041.52,-959.62,609.9,-1590.42
101,0.0,0.017,0.0,0.0,0.008,-27.4,-34.98,3928.56,-2311.44,11513.52,-1526.62,1932.9,-715.42
120,0.0,0.065,0.0,0.0,0.11,-29.85,-38.36,3524.56,-3423.44,11901.52,-2653.62,3041.9,195.58
140,0.0,0.025,0.0,1.0,0.11,-31.56,-41.37,3436.56,-3991.44,12153.52,-3925.62,3427.9,-32.42
160,0.0,0.09,0.0,0.619,0.144,-32.67,-43.77,3084.56,-4151.44,13281.52,-5627.62,3450.9,-344.42
180,0.0,0.057,0.0,0.346,0.11,-33.65,-46.51,3488.56,-5163.44,12741.52,-7194.62,3115.9,179.58
200,0.0,0.098,0.0,0.743,0.11,-34.01,-48.99,3716.56,-5683.44,13525.52,-8414.62,5857.9,36.58
220,0.0,0.162,0.0,1.0,0.0,-33.75,-51.53,3936.56,-6675.44,13853.52,-9830.62,9077.9,854.58
240,0.0,0.154,0.0,0.693,0.0,-33.02,-53.98,3688.56,-7307.44,13557.52,-9579.62,11909.9,3350.58
261,0.0,0.146,0.0,1.0,0.11,-31.89,-56.51,3308.56,-7291.44,13141.52,-10909.62,14710.9,5752.58
280,0.0,0.146,0.0,0.395,0.211,-30.26,-59.15,1936.56,-8159.44,13037.52,-12097.62,16575.9,10087.58
301,0.0,0.219,0.0,0.296,0.144,-28.44,-61.72,1644.56,-9871.44,13209.52,-11875.62,17227.9,13595.58
320,0.0,0.235,0.0,0.184,0.11,-26.66,-64.12,144.56,-12119.44,13809.52,-11195.62,14802.9,17258.58
341,0.0,0.276,0.0,0.209,0.042,-24.92,-65.86,-1479.44,-11891.44,14325.52,-8393.62,13481.9,20526.58
361,0.0,0.235,0.0,1.0,0.177,-23.48,-67.21,-1367.44,-13035.44,13301.52,-4719.62,12227.9,23126.58
380,0.0,0.252,0.0,1.0,0.684,-22.02,-67.71,-1067.44,-14839.44,13621.52,1153.38,12641.9,25134.58
401,0.0,0.235,0.0,0.805,0.684,-20.09,-67.33,-2907.44,-13663.44,13633.52,6502.38,15073.9,27263.58
422,0.0,0.195,0.0,0.805,0.11,-17.79,-66.54,-6283.44,-15799.44,14273.52,9928.38,14546.9,28727.58
441,0.0,0.252,0.0,0.693,0.684,-15.81,-64.86,-5427.44,-11039.44,14061.52,14280.38,14848.9,31452.58
460,0.0,0.26,0.0,0.606,0.684,-13.19,-62.76,-9751.44,-9263.44,15353.52,15366.38,14829.9,32053.58
481,0.0,0.252,0.0,0.979,0.684,-10.97,-61.7,-10419.44,-10907.44,13585.52,11995.38,12314.9,31923.58
501,0.0,0.268,0.0,1.0,0.0,-8.19,-60.01,-12367.44,-9867.44,13457.52,16296.38,14541.9,31470.58
522,0.0,0.243,0.07,1.0,0.684,-4.71,-57.7,-13763.44,-7131.44,13357.52,19572.38,17901.9,30410.58
540,0.0,0.26,0.0,1.0,0.752,-0.67,-54.63,-17211.44,-4227.44,15545.52,20541.38,18298.9,28218.58
560,0.0,0.519,0.0,1.0,0.718,2.57,-52.22,-16499.44,-6139.44,14173.52,20584.38,15349.9,28669.58
580,0.0,0.235,0.0,1.0,0.684,5.58,-50.0,-16403.44,-6635.44,13513.52,21437.38,15046.9,30275.58
600,0.0,0.235,0.0,1.0,0.177,9.15,-47.15,-16911.44,-4435.44,14053.52,24132.38,18560.9,29168.58
620,0.0,0.211,0.0,1.0,0.684,13.39,-44.07,-17271.44,-483.44,12765.52,23390.38,21016.9,29033.58
641,0.0,0.195,0.0,1.0,0.752,17.88,-40.8,-18971.44,1096.56,12881.52,22995.38,21162.9,29708.58
660,0.0,0.203,0.0,1.0,0.684,21.91,-37.64,-19375.44,1204.56,13065.52,23039.38,19259.9,31050.58
681,0.0,0.187,0.0,1.0,0.312,25.74,-34.22,-18899.44,2452.56,12137.52,24655.38,18110.9,31634.58
701,0.0,0.187,0.0,1.0,0.684,30.03,-29.69,-18215.44,6244.56,10869.52,23766.38,20029.9,30584.58
720,0.0,0.162,0.0,0.942,0.988,34.86,-25.69,-18695.44,6396.56,9421.52,21483.38,22232.9,27794.58
740,0.0,0.138,0.0,1.0,0.177,39.44,-21.46,-18491.44,6780.56,9197.52,22731.38,22007.9,23949.58
760,0.0,0.122,0.0,1.0,0.684,44.11,-15.19,-17595.44,9600.56,7185.52,20629.38,23412.9,20662.58
780,0.0,0.13,0.0,1.0,0.954,48.18,-7.78,-18007.44,12468.56,5621.52,17339.38,24038.9,18182.58
801,0.0,0.09,0.0,1.0,0.752,52.09,-0.45,-18971.44,12476.56,4281.52,13675.38,23202.9,15251.58
820,0.0,0.098,0.0,0.979,0.177,55.43,7.19,-19375.44,12752.56,2889.52,12558.38,21076.9,13494.58
840,0.0,0.098,0.0,1.0,0.718,57.84,15.11,-19011.44,13664.56,1701.52,13701.38,18183.9,11276.58
860,0.0,0.033,0.0,0.979,0.684,59.11,22.46,-18311.44,16980.56,905.52,12890.38,16450.9,8169.58
880,0.0,0.0,0.0,1.0,0.684,59.9,29.07,-18435.44,16572.56,17.52,7865.38,13575.9,5738.58
900,0.0,0.033,0.0,1.0,0.211,60.15,35.53,-17323.44,15604.56,-1014.48,5687.38,11295.9,3322.58
920,0.0,0.0,0.0,1.0,0.684,60.45,42.0,-18539.44,14376.56,-1306.48,5413.38,9389.9,1086.58
940,0.0,0.0,0.0,1.0,0.684,59.75,47.69,-18111.44,17252.56,-1442.48,4949.38,5918.9,-2176.42
961,0.0,0.0,0.0,1.0,1.0,58.5,52.65,-18587.44,17624.56,-1758.48,1382.38,1860.9,-3826.42
980,0.0,0.0,0.0,1.0,1.0,56.82,57.9,-17271.44,15448.56,-2214.48,1729.38,-1384.1,-3667.42
1001,0.0,0.025,0.0,0.966,0.11,55.13,63.2,-16763.44,15524.56,-1790.48,4432.38,-1496.1,-3658.42
1021,0.0,0.0,0.0,1.0,0.684,53.32,67.74,-17011.44,17232.56,-1506.48,3084.38,-1875.1,-3959.42
1040,0.0,0.0,0.0,0.991,0.279,51.62,71.62,-18607.44,16040.56,-482.48,650.38,-5227.1,-4367.42
1060,0.0,0.0,0.0,0.966,0.008,49.77,75.25,-19519.44,15116.56,837.52,1997.38,-9515.1,-5038.42
1080,0.0,0.0,0.0,0.954,0.684,47.29,78.11,-18815.44,16444.56,1805.52,1040.38,-12689.1,-5410.42
1100,0.0,0.0,0.0,0.917,0.684,44.96,80.2,-17131.44,14996.56,3573.52,353.38,-12742.1,-5159.42
1120,0.0,0.0,0.0,0.979,0.279,43.46,80.97,-18783.44,14900.56,6229.52,-796.62,-9682.1,-4889.42
1140,0.0,0.0,0.0,0.979,0.0,42.16,80.58,-22123.44,14056.56,9501.52,235.38,-11384.1,-2967.42
1160,0.0,0.0,0.0,1.0,0.684,40.27,80.42,-20075.44,14244.56,9809.52,2135.38,-13837.1,-1897.42
1181,0.0,0.0,0.0,0.979,0.684,38.94,80.2,-17859.44,14740.56,9237.52,119.38,-8309.1,-3567.42
1200,0.0,0.0,0.0,1.0,0.144,38.93,78.87,-20807.44,13900.56,11105.52,-2925.62,-2186.1,-4361.42
1220,0.0,0.0,0.0,0.979,0.684,39.16,77.64,-23803.44,12788.56,12285.52,1139.38,-2850.1,-232.42
1240,0.0,0.0,0.0,1.0,0.684,39.17,77.15,-24227.44,13764.56,11153.52,2775.38,-4977.1,1558.58
1261,0.0,0.0,0.0,0.991,0.076,38.93,77.25,-21203.44,15560.56,8689.52,-45.62,-4477.1,-1490.42
1281,0.0,0.0,0.07,0.979,0.684,39.53,77.09,-21855.44,14648.56,7513.52,-3302.62,-830.1,-2936.42
1300,0.0,0.0,0.0,0.991,0.312,40.36,77.25,-23287.44,14200.56,7485.52,-689.62,-727.1,4.58
1320,0.0,0.0,0.0,0.979,0.245,40.92,77.9,-22883.44,14552.56,6857.52,912.38,-1968.1,2110.58
1340,0.0,0.0,0.0,0.979,0.11,41.51,78.74,-21323.44,14672.56,5901.52,-49.62,-729.1,515.58
1360,0.0,0.0,0.0,0.991,0.211,42.44,79.41,-22103.44,14416.56,5705.52,-1263.62,857.9,-813.42
1380,0.0,0.0,0.0,0.755,0.177,43.42,80.32,-22891.44,14512.56,5405.52,-234.62,891.9,118.58
1400,0.0,0.0,0.0,0.966,0.684,44.19,81.3,-23579.44,14736.56,5469.52,695.38,-416.1,1162.58
1420,0.0,0.0,0.0,0.867,0.0,44.83,82.29,-23047.44,14372.56,5189.52,508.38,-1324.1,1168.58
1440,0.0,0.0,0.0,0.979,0.211,45.54,83.35,-22423.44,14612.56,4677.52,-99.62,-53.1,630.58
1461,0.0,0.0,0.0,0.966,0.177,46.44,84.18,-23539.44,14220.56,4937.52,-553.62,327.9,510.58
1480,0.0,0.0,0.0,0.793,0.245,47.2,85.04,-23647.44,14172.56,5121.52,584.38,-558.1,1084.58
1501,0.0,0.0,1.0,0.892,0.684,47.85,86.06,-23215.44,14196.56,4661.52,620.38,-870.1,1168.58
1521,0.0,0.0,0.0,0.954,0.11,48.56,86.79,-22943.44,13912.56,4825.52,-407.62,-449.1,534.58
1540,0.0,0.0,0.0,0.979,0.684,49.28,87.49,-22859.44,14044.56,4917.52,-152.62,-14.1,264.58
1560,0.0,0.0,0.0,0.942,0.11,50.03,88.26,-23315.44,14108.56,4973.52,761.38,218.9,701.58
1580,0.0,0.0,0.0,0.892,0.11,50.64,88.84,-23679.44,14344.56,5185.52,283.38,-524.1,561.58
1600,0.0,0.0,0.0,0.917,0.177,51.21,89.35,-22791.44,13900.56,4893.52,-628.62,-629.1,-157.42
1620,0.0,0.203,0.0,0.793,0.11,51.9,89.68,-23035.44,13880.56,5209.52,-750.62,187.9,-394.42
1640,0.0,0.0,0.0,0.768,0.11,52.59,89.9,-23495.44,13804.56,5653.52,-33.62,115.9,175.58
1660,0.0,0.0,0.0,0.917,0.177,53.17,90.16,-23079.44,14004.56,5529.52,-27.62,16.9,315.58
1680,0.0,0.0,0.0,0.979,0.177,53.74,90.51,-22939.44,14148.56,5145.52,-412.62,217.9,105.58
1700,0.0,0.0,0.0,0.954,0.684,54.29,90.81,-22887.44,14284.56,5225.52,-428.62,481.9,-317.42
1720,0.0,0.0,0.0,1.0,1.0,54.77,91.17,-22583.44,14164.56,4965.52,-455.62,172.9,-309.42
1740,0.0,0.0,0.0,0.904,0.008,55.26,91.49,-22707.44,14152.56,5117.52,-214.62,213.9,-312.42
1761,0.0,0.0,0.0,0.917,0.211,55.62,91.68,-22875.44,14168.56,5225.52,-672.62,-538.1,-472.42
1780,0.0,0.0,0.0,0.197,0.0,55.93,91.87,-22731.44,14408.56,5201.52,-645.62,-409.1,-663.42
1801,0.0,0.0,0.0,0.917,0.11,56.28,92.02,-22987.44,13708.56,5217.52,-485.62,-1077.1,-317.42
1820,0.0,0.0,0.0,0.83,0.211,56.56,92.29,-22215.44,13852.56,5237.52,432.38,-763.1,-87.42
1841,0.0,0.0,0.0,0.904,0.076,56.95,92.33,-22771.44,14340.56,5689.52,11.38,320.9,-343.42
1860,0.0,0.0,0.0,0.83,0.11,57.34,92.21,-23211.44,14100.56,5905.52,-327.62,-88.1,-369.42
1881,0.0,0.0,0.0,0.842,1.0,57.7,92.23,-22607.44,13976.56,5545.52,-254.62,-3.1,-432.42
1900,0.0,0.0,0.0,0.818,0.177,58.05,92.16,-23211.44,13832.56,5529.52,-716.62,-463.1,-229.42
1921,0.0,0.0,0.0,0.842,0.887,58.27,92.17,-22659.44,13996.56,5417.52,-495.62,-782.1,-143.42
1941,0.0,0.0,0.0,0.818,0.11,58.53,92.21,-22295.44,13704.56,5285.52,-421.62,-672.1,-52.42
1960,0.0,0.0,0.0,0.42,0.279,58.82,92.08,-22815.44,14032.56,5757.52,-473.62,-182.1,-74.42
1980,0.0,0.0,0.0,0.842,1.0,59.13,91.9,-22923.44,14016.56,5877.52,-401.62,17.9,-78.42
2000,0.0,0.0,0.0,0.606,0.177,59.43,91.83,-22871.44,14052.56,5697.52,-109.62,54.9,109.58
2020,0.0,0.0,0.0,0.966,0.11,59.7,91.76,-22899.44,14312.56,5625.52,-412.62,129.9,56.58
2041,0.0,0.0,0.0,1.0,0.11,60.04,91.73,-22971.44,13944.56,5521.52,-162.62,259.9,98.58
2060,0.0,0.0,0.0,0.842,1.0,60.31,91.66,-23315.44,14100.56,5613.52,-215.62,-77.1,254.58
2080,0.0,0.0,0.0,0.842,0.11,60.52,91.58,-22963.44,14392.56,5533.52,-537.62,36.9,-57.42
2100,0.0,0.0,0.0,0.768,1.0,60.77,91.47,-23179.44,14120.56,5477.52,-776.62,-73.1,-168.42
2120,0.0,0.0,0.0,0.147,0.684,60.97,91.39,-23199.44,14380.56,5545.52,-493.62,-15.1,-77.42
2140,0.0,0.0,0.0,0.818,0.11,61.17,91.3,-23131.44,14228.56,5601.52,-270.62,-107.1,-30.42
2160,0.0,0.0,0.0,0.842,0.0,61.36,91.23,-23091.44,14432.56,5701.52,58.38,198.9,-132.42
2180,0.0,0.0,0.0,0.842,0.11,61.54,91.1,-23063.44,14384.56,5697.52,-342.62,110.9,-348.42
2200,0.0,0.0,0.0,0.818,0.0,61.73,91.0,-22819.44,14196.56,5481.52,-524.62,192.9,-529.42
2220,0.0,0.0,0.0,0.842,0.684,62.01,90.78,-23219.44,13952.56,5737.52,-611.62,407.9,-593.42
2240,0.0,0.0,0.0,0.904,0.177,62.21,90.63,-23027.44,13840.56,5605.52,-364.62,-82.1,-409.42
2260,0.0,0.0,0.0,0.855,0.177,62.38,90.51,-22755.44,13884.56,5565.52,-289.62,1.9,-399.42
2281,0.0,0.0,0.0,1.0,0.008,62.66,90.37,-22735.44,13740.56,5481.52,-521.62,616.9,-509.42
2300,0.0,0.0,0.0,1.0,0.11,62.92,90.23,-22883.44,13744.56,5537.52,-360.62,526.9,-245.42
2320,0.0,0.0,0.0,0.904,0.0,63.14,90.16,-23235.44,13728.56,5441.52,-121.62,100.9,58.58
2340,0.0,0.0,0.0,0.855,0.11,63.24,90.12,-22735.44,13668.56,5289.52,-269.62,-517.1,-132.42
2361,0.0,0.0,0.0,0.818,0.11,63.29,90.07,-22679.44,14032.56,5221.52,-667.62,-353.1,-342.42
2380,0.0,0.0,0.0,0.917,0.11,63.35,89.93,-22623.44,13948.56,5565.52,-302.62,-279.1,-205.42
2400,0.0,0.0,0.0,0.755,0.177,63.4,89.71,-22819.44,13968.56,5861.52,-37.62,-367.1,73.58
2421,0.0,0.0,0.0,0.78,0.076,63.47,89.52,-22847.44,13916.56,5753.52,-101.62,-249.1,-36.42
2440,0.0,0.0,0.0,0.557,0.684,63.54,89.33,-22947.44,13784.56,5729.52,-157.62,-477.1,-114.42
2460,0.0,0.0,0.0,0.917,0.684,63.58,89.25,-22727.44,13800.56,5493.52,51.38,-544.1,-139.42
2480,0.0,0.0,0.0,0.991,0.211,63.65,89.0,-22779.44,13904.56,5785.52,-404.62,-186.1,-400.42
2501,0.0,0.0,0.0,0.793,1.0,63.78,88.71,-23119.44,13736.56,5801.52,-571.62,-52.1,-355.42
2521,0.0,0.0,0.0,0.594,0.11,63.86,88.53,-23295.44,13748.56,5653.52,-197.62,-497.1,-59.42
2540,0.0,0.0,0.0,0.892,0.11,63.9,88.43,-23215.44,13552.56,5569.52,144.38,-919.1,256.58
2560,0.0,0.0,0.862,0.768,0.144,63.88,88.28,-22735.44,14188.56,5841.52,258.38,-361.1,-1.42
2581,0.0,0.0,0.0,0.818,1.0,64.0,87.9,-23295.44,13880.56,6105.52,-451.62,94.9,-185.42
2600,0.0,0.0,0.0,0.842,0.042,64.1,87.58,-23303.44,13892.56,6205.52,90.38,-12.1,-51.42
2621,0.0,0.0,0.0,0.929,0.0,64.17,87.29,-23499.44,14004.56,6193.52,167.38,-148.1,49.58
2640,0.0,0.0,0.0,0.867,0.921,64.18,87.12,-22951.44,13820.56,5881.52,343.38,-530.1,155.58
2660,0.0,0.114,0.0,0.073,0.11,64.28,86.9,-22815.44,14056.56,6073.52,269.38,521.9,-213.42
2681,0.0,0.203,0.56,0.805,0.684,64.43,86.55,-23423.44,13904.56,6285.52,37.38,467.9,-206.42
2700,0.0,0.0,1.0,0.793,0.177,64.54,86.3,-23347.44,13864.56,5953.52,-68.62,146.9,46.58
2720,0.0,0.0,0.0,0.867,0.684,64.65,86.03,-23339.44,13456.56,6005.52,116.38,-245.1,297.58
2740,0.0,0.0,0.0,0.793,0.076,64.67,85.98,-22795.44,13892.56,5777.52,694.38,-58.1,336.58
2760,0.0,0.0,0.0,0.743,0.144,64.76,85.86,-22683.44,13864.56,5753.52,233.38,421.9,126.58
2780,0.0,0.0,0.0,0.892,0.245,64.93,85.63,-23119.44,13648.56,5857.52,-69.62,572.9,20.58
2800,0.0,0.0,0.0,0.805,0.11,65.01,85.59,-23247.44,13756.56,5609.52,440.38,31.9,345.58
2820,0.0,0.0,0.0,0.979,0.684,64.98,85.55,-22883.44,13928.56,5509.52,164.38,-328.1,248.58
2840,0.0,0.0,0.0,0.755,0.11,64.96,85.49,-22727.44,13928.56,5345.52,-398.62,-253.1,-276.42
2860,0.0,0.0,0.0,0.979,0.0,64.98,85.3,-22635.44,13836.56,5649.52,-478.62,81.9,-503.42
2880,0.0,0.0,0.0,0.979,0.684,65.0,85.15,-22803.44,13852.56,5773.52,102.38,31.9,-191.42
2901,0.0,0.0,0.0,1.0,0.11,65.0,84.93,-23075.44,13856.56,5921.52,32.38,-123.1,26.58
2920,0.0,0.0,0.0,0.805,0.177,64.97,84.72,-22967.44,13772.56,5737.52,-379.62,-446.1,-267.42
2940,0.0,0.0,0.862,0.731,0.177,64.95,84.5,-22923.44,13628.56,5709.52,-516.62,-490.1,-271.42
2960,0.0,0.0,0.0,1.0,0.211,64.95,84.33,-22663.44,13524.56,5849.52,315.38,-296.1,235.58
2980,0.0,0.0,0.0,0.78,0.076,64.95,84.19,-22815.44,13900.56,5921.52,423.38,22.9,415.58
