timestamp,flex_1,flex_2,flex_3,flex_4,flex_5,kalman_pitch,kalman_roll,acc_x,acc_y,acc_z,gyro_x,gyro_y,gyro_z
0,1.0,0.219,0.427,0.0,0.683,28.21,-0.48,1784.16,-369.2,11931.12,-1541.3,2195.96,-1271.54
18,1.0,0.253,0.525,0.0,1.0,5.64,-10.04,1688.16,-1641.2,13331.12,-1066.3,2050.96,-2175.54
38,1.0,0.27,0.493,0.0,0.755,-8.21,-15.79,1456.16,-1513.2,13163.12,295.7,2266.96,-2358.54
58,1.0,0.27,0.525,0.0,0.826,-17.76,-18.89,2384.16,-1249.2,13767.12,1430.7,1911.96,-870.54
78,1.0,0.261,0.525,0.0,0.683,-24.64,-22.59,3680.16,-3101.2,13671.12,1535.7,1571.96,-121.54
98,1.0,0.236,0.525,0.0,0.791,-28.89,-26.57,4424.16,-6113.2,13879.12,2797.7,4828.96,1516.46
118,1.0,0.193,0.197,0.0,0.683,-30.83,-29.59,2908.16,-8409.2,14903.12,5724.7,8425.96,5156.46
138,1.0,0.185,0.361,0.0,0.683,-31.66,-30.86,1812.16,-9801.2,17555.12,10311.7,8049.96,11037.46
158,1.0,0.151,0.361,0.0,0.683,-32.82,-30.88,3256.16,-10233.2,19099.12,15143.7,4851.96,15782.46
178,1.0,0.065,0.46,0.0,0.826,-34.04,-30.18,3300.16,-10789.2,18871.12,20692.7,2993.96,23337.46
198,1.0,0.057,0.46,0.0,0.898,-34.63,-28.62,4692.16,-12825.2,22515.12,24249.7,4420.96,29467.46
218,1.0,0.099,0.427,0.0,0.576,-34.63,-26.58,5204.16,-11629.2,23855.12,25337.7,8577.96,32899.46
238,1.0,0.031,0.394,0.0,0.826,-33.79,-24.39,5736.16,-8525.2,23107.12,24295.7,16801.96,32899.46
258,1.0,0.014,0.46,0.0,0.683,-31.31,-21.53,3304.16,-8049.2,25543.12,27384.7,25352.96,32899.46
278,1.0,0.0,0.394,0.0,0.791,-27.74,-17.64,120.16,-5481.2,26387.12,32363.7,31543.96,31809.46
298,1.0,0.014,0.361,0.0,0.54,-23.89,-13.21,-3631.84,-1885.2,27223.12,33176.7,31543.96,27392.46
318,1.0,0.0,0.296,0.0,0.683,-19.93,-8.13,-5983.84,3126.8,27903.12,33176.7,31543.96,24258.46
338,1.0,0.0,0.46,0.0,0.755,-15.74,-3.55,-9163.84,5474.8,26467.12,29044.7,31543.96,20061.46
358,1.0,0.0,0.525,0.0,0.719,-11.55,-0.63,-10815.84,5074.8,25303.12,19841.7,31543.96,14603.46
378,1.0,0.0,0.46,0.0,0.54,-7.22,1.8,-12907.84,4482.8,25371.12,18553.7,31543.96,12283.46
398,1.0,0.0,0.525,0.0,0.683,-3.12,4.52,-13111.84,5906.8,25443.12,19844.7,31543.96,9856.46
418,1.0,0.0,0.46,0.0,0.683,0.8,7.2,-13519.84,5790.8,23971.12,20521.7,31543.96,6809.46
438,1.0,0.0,0.427,0.0,0.576,4.63,9.75,-14551.84,6946.8,24491.12,19368.7,31152.96,5474.46
458,1.0,0.0,0.46,0.0,0.54,7.54,11.7,-14011.84,6334.8,22519.12,16540.7,26804.96,3761.46
478,1.0,0.0,0.46,0.0,0.54,9.96,13.03,-14379.84,5686.8,21051.12,13573.7,23948.96,604.46
498,1.0,0.0,0.493,0.0,0.898,11.93,13.94,-14847.84,4666.8,20731.12,12790.7,20915.96,-1274.54
518,1.0,0.0,0.427,0.0,0.54,13.48,15.03,-15019.84,4926.8,19707.12,13813.7,18293.96,-545.54
538,1.0,0.0,0.394,0.0,0.504,14.76,16.34,-15767.84,5522.8,19231.12,14585.7,15616.96,-40.54
558,1.0,0.0,0.427,0.0,1.0,15.87,17.55,-16647.84,5834.8,19507.12,14034.7,13655.96,22.46
578,1.0,0.0,0.328,0.0,0.719,16.41,18.74,-15739.84,7146.8,17799.12,11381.7,11109.96,-126.54
598,1.0,0.0,0.46,0.0,0.755,16.89,19.17,-15999.84,6302.8,16179.12,7172.7,9520.96,-889.54
618,1.0,0.0,0.427,0.0,0.862,17.4,19.4,-16647.84,6278.8,16259.12,6014.7,8653.96,-449.54
638,1.0,0.0,0.46,0.0,0.504,17.79,19.76,-16979.84,6322.8,15755.12,6579.7,7002.96,-245.54
658,1.0,0.0,0.525,0.0,0.648,18.26,20.26,-18175.84,6958.8,16279.12,6832.7,6129.96,-230.54
678,1.0,0.0,0.525,0.0,0.648,18.43,20.78,-17963.84,7478.8,16199.12,5968.7,4570.96,-506.54
698,1.0,0.0,0.493,0.0,0.934,18.59,21.09,-17751.84,7578.8,15527.12,3971.7,4472.96,-1627.54
718,1.0,0.0,0.46,0.0,0.612,18.84,21.36,-18879.84,8878.8,16271.12,2098.7,4294.96,-1690.54
738,1.0,0.0,0.427,0.0,0.648,20.53,23.55,-20631.84,6854.8,12067.12,14318.7,5968.96,2419.46
758,1.0,0.0,0.558,0.0,0.934,20.56,22.82,-20027.84,9242.8,16419.12,-4529.3,1774.96,-2003.54
778,1.0,0.0,0.821,0.0,0.755,20.8,22.23,-20419.84,8490.8,16599.12,-2404.3,2462.96,-1055.54
798,1.0,0.0,0.525,0.0,0.791,21.0,22.1,-20551.84,8830.8,16399.12,-306.3,2029.96,-463.54
818,1.0,0.0,0.46,0.0,0.648,21.99,24.06,-21147.84,9278.8,14939.12,11781.7,5724.96,2148.46
838,1.0,0.0,0.328,0.0,0.612,22.44,24.68,-19531.84,8730.8,14287.12,3281.7,3581.96,339.46
858,1.0,0.0,0.525,0.0,0.719,23.17,25.32,-21619.84,9502.8,14239.12,2118.7,3207.96,322.46
878,1.0,0.0,0.46,0.0,0.218,23.7,25.79,-22143.84,10602.8,14663.12,-111.3,2379.96,-411.54
898,1.0,0.0,0.525,0.0,0.826,24.2,25.67,-22751.84,10262.8,14547.12,-3781.3,1242.96,-1495.54
918,1.0,0.0,0.328,0.0,0.612,24.7,25.49,-22759.84,10066.8,13891.12,-4969.3,654.96,-1595.54
938,1.0,0.0,0.394,0.0,0.826,25.27,25.43,-23155.84,8998.8,14815.12,-1246.3,767.96,-105.54
958,1.0,0.0,0.427,0.0,0.719,25.96,26.04,-23555.84,9638.8,14991.12,2402.7,1863.96,530.46
978,1.0,0.0,0.164,0.0,0.683,26.6,26.61,-23447.84,10138.8,14447.12,756.7,1545.96,-102.54
998,1.0,0.0,0.46,0.0,0.612,27.16,26.71,-23535.84,9846.8,14679.12,-1632.3,1058.96,-880.54
1018,1.0,0.0,0.427,0.0,0.755,27.71,26.48,-23843.84,9078.8,15019.12,-2281.3,510.96,-988.54
1038,1.0,0.0,0.624,0.0,0.648,28.26,26.64,-24087.84,9514.8,15575.12,205.7,1062.96,-211.54
1058,1.0,0.0,0.427,0.0,0.648,28.82,26.97,-24459.84,9842.8,15819.12,1175.7,1228.96,257.46
1077,1.0,0.0,0.427,0.0,0.683,29.29,27.29,-24491.84,10226.8,15343.12,15.7,534.96,314.46
1097,1.0,0.0,0.493,0.0,0.791,29.81,27.24,-23991.84,9294.8,14399.12,-2261.3,10.96,-177.54
1118,1.0,0.0,0.525,0.0,0.826,30.38,27.14,-24731.84,9122.8,14971.12,-1622.3,129.96,-179.54
1137,1.0,0.0,0.46,0.0,0.934,30.88,27.43,-24907.84,9630.8,15103.12,281.7,24.96,555.46
1157,1.0,0.0,0.493,0.0,0.791,31.35,27.92,-24927.84,10138.8,15151.12,977.7,168.96,494.46
1177,1.0,0.0,0.328,0.0,0.576,31.71,28.36,-25123.84,10782.8,15275.12,-59.3,-259.04,282.46
1198,1.0,0.0,0.328,0.0,0.648,32.09,28.5,-24611.84,9782.8,14667.12,-1279.3,-652.04,-154.54
1217,1.0,0.0,0.328,0.0,0.648,32.48,28.77,-24835.84,10078.8,15311.12,-133.3,-126.04,-70.54
1237,1.0,0.0,0.427,0.0,0.648,32.83,29.04,-24959.84,10050.8,15435.12,143.7,-437.04,87.46
1257,1.0,0.0,0.361,0.0,0.612,33.29,29.47,-27235.84,10814.8,14507.12,-1042.3,-1525.04,-35.54
1277,1.0,0.0,0.328,0.0,0.934,33.53,29.92,-24303.84,10102.8,14915.12,745.7,-868.04,746.46
1297,1.0,0.0,0.755,0.0,0.648,33.74,29.86,-24507.84,9526.8,15307.12,-1286.3,-1331.04,85.46
1317,1.0,0.0,0.164,0.0,0.826,34.05,30.03,-24827.84,10170.8,15379.12,-704.3,-442.04,7.46
1337,1.0,0.0,0.0,0.0,0.719,34.33,30.11,-24971.84,9874.8,15539.12,-703.3,-851.04,190.46
1357,1.0,0.0,0.197,0.0,0.648,34.56,30.24,-25215.84,9974.8,15703.12,-264.3,-1192.04,489.46
1377,1.0,0.0,0.493,0.0,0.648,34.78,30.2,-24447.84,9262.8,15247.12,-874.3,-1380.04,-83.54
1397,1.0,0.0,0.23,0.0,0.826,34.99,30.23,-24431.84,10170.8,15671.12,-1350.3,-580.04,-803.54
1417,1.0,0.0,0.0,0.0,0.719,35.27,30.08,-24559.84,9378.8,15371.12,-1741.3,-889.04,-520.54
1437,1.0,0.0,0.361,0.0,0.683,35.58,30.0,-24075.84,8482.8,15395.12,123.7,-652.04,-71.54
1457,1.0,0.0,0.0,0.0,0.862,35.81,30.35,-24763.84,10186.8,16627.12,1664.7,31.96,289.46
1477,1.0,0.0,0.394,0.0,0.683,36.05,30.55,-24583.84,10118.8,16075.12,332.7,-178.04,144.46
1497,1.0,0.0,0.361,0.0,0.612,36.32,30.36,-24979.84,9342.8,15959.12,-1339.3,-758.04,61.46
1517,1.0,0.0,0.328,0.0,0.791,36.49,30.19,-24143.84,8934.8,15903.12,-678.3,-922.04,229.46
1537,1.0,0.0,0.361,0.0,0.826,36.75,30.36,-24307.84,9678.8,15959.12,496.7,8.96,268.46
1557,1.0,0.0,0.46,0.0,0.612,37.07,30.67,-24719.84,9882.8,15859.12,1047.7,59.96,476.46
1577,1.0,0.0,0.427,0.0,0.54,37.27,30.91,-24899.84,10342.8,16207.12,386.7,-338.04,289.46
1597,1.0,0.0,0.46,0.0,0.97,37.49,30.98,-24843.84,10298.8,15971.12,-902.3,-370.04,-313.54
1617,1.0,0.0,0.361,0.0,0.791,37.77,30.98,-24575.84,9734.8,15631.12,-955.3,-167.04,-482.54
1637,1.0,0.0,0.525,0.0,0.683,38.07,30.9,-24535.84,8946.8,15219.12,-715.3,-757.04,-271.54
1657,1.0,0.0,0.525,0.0,0.576,38.27,31.18,-24443.84,9846.8,15939.12,1056.7,-276.04,362.46
1677,1.0,0.0,0.427,0.0,0.54,38.45,31.41,-24515.84,10110.8,16379.12,812.7,-15.04,267.46
1697,1.0,0.0,0.525,0.0,0.648,38.62,31.48,-24547.84,10098.8,16087.12,-427.3,-238.04,-4.54
1717,1.0,0.0,0.394,0.0,0.54,38.85,31.35,-24291.84,9354.8,15875.12,-977.3,-162.04,-459.54
1737,1.0,0.0,0.361,0.0,0.719,39.04,31.43,-24727.84,10054.8,16499.12,15.7,11.96,-224.54
1757,1.0,0.0,0.361,0.0,0.648,39.25,31.56,-24503.84,9782.8,15855.12,116.7,-179.04,70.46
1777,1.0,0.0,0.23,0.0,0.111,39.55,31.51,-24047.84,8834.8,15643.12,153.7,152.96,-69.54
1797,1.0,0.0,0.427,0.0,0.612,39.76,31.61,-24515.84,9914.8,16139.12,51.7,150.96,24.46
1817,1.0,0.0,0.46,0.0,0.97,39.95,31.58,-24579.84,9650.8,16063.12,-555.3,-135.04,189.46
1837,1.0,0.0,0.394,0.0,0.648,40.12,31.52,-24723.84,9818.8,16071.12,-1032.3,-377.04,186.46
1857,1.0,0.0,0.328,0.0,0.54,40.38,31.35,-24195.84,8718.8,15195.12,-1022.3,-443.04,86.46
1877,1.0,0.0,0.328,0.0,0.719,40.56,31.45,-24359.84,9230.8,15955.12,782.7,-225.04,349.46
1897,1.0,0.0,0.361,0.0,0.504,40.69,31.76,-24555.84,10214.8,16475.12,1266.7,95.96,412.46
1917,1.0,0.0,0.361,0.0,0.648,40.85,31.91,-24591.84,10154.8,16195.12,124.7,50.96,-9.54
1937,1.0,0.0,0.394,0.0,0.791,40.93,31.78,-24431.84,9726.8,16099.12,-1334.3,-530.04,-246.54
1957,1.0,0.0,0.361,0.0,0.683,41.14,31.65,-24403.84,9430.8,16187.12,-794.3,249.96,-146.54
1977,1.0,0.0,0.427,0.0,0.719,41.26,31.59,-24127.84,9378.8,15939.12,-592.3,-255.04,127.46
1997,1.0,0.0,0.394,0.0,0.719,41.45,31.67,-24383.84,9426.8,16123.12,480.7,137.96,193.46
2017,1.0,0.0,0.427,0.0,0.504,41.59,31.83,-24519.84,9870.8,16347.12,641.7,142.96,165.46
2037,1.0,0.0,0.427,0.0,0.469,41.74,31.97,-24527.84,9862.8,16115.12,278.7,30.96,137.46
2057,1.0,0.0,0.394,0.0,0.719,41.91,31.99,-24163.84,9622.8,15731.12,-495.3,131.96,-130.54
2077,1.0,0.0,0.296,0.0,0.826,42.11,31.97,-24359.84,9426.8,16195.12,-45.3,465.96,-24.54
2097,1.0,0.0,0.296,0.0,0.862,42.28,32.06,-24403.84,9614.8,15787.12,-28.3,2.96,141.46
2117,1.0,0.0,0.427,0.0,0.648,42.41,32.25,-24455.84,9674.8,16055.12,956.7,-8.04,503.46
2137,1.0,0.0,0.46,0.0,0.648,42.52,32.55,-24619.84,10070.8,16235.12,1296.7,61.96,568.46
2157,1.0,0.0,0.493,0.0,0.791,42.59,32.79,-24435.84,10250.8,16083.12,614.7,-41.04,287.46
2177,1.0,0.0,0.525,0.0,0.791,42.65,32.88,-24303.84,10162.8,15959.12,-405.3,-135.04,-207.54
2197,1.0,0.0,0.493,0.0,0.469,42.83,32.86,-24623.84,9798.8,16227.12,-350.3,408.96,-560.54
2217,1.0,0.0,0.164,0.0,0.683,42.91,32.84,-24379.84,9750.8,15947.12,-566.3,-197.04,-438.54
2237,1.0,0.0,0.361,0.0,0.612,43.05,32.79,-24363.84,9330.8,15995.12,-79.3,7.96,-131.54
2257,1.0,0.0,0.493,0.0,0.576,43.18,32.79,-24343.84,9302.8,16003.12,248.7,35.96,269.46
2277,1.0,0.0,0.296,0.0,0.862,43.26,32.97,-24467.84,9854.8,16211.12,846.7,38.96,734.46
2297,1.0,0.0,0.296,0.0,0.791,43.34,33.13,-24399.84,9954.8,16055.12,551.7,-18.04,521.46
2317,1.0,0.0,0.361,0.0,0.576,43.42,33.21,-24699.84,10178.8,16283.12,-136.3,47.96,-37.54
2337,1.0,0.0,0.427,0.0,0.791,43.46,33.05,-24215.84,9614.8,16175.12,-1040.3,-113.04,-330.54
2357,1.0,0.0,0.46,0.0,0.755,43.56,33.01,-24219.84,9406.8,15963.12,-160.3,35.96,-301.54
2377,1.0,0.0,0.493,0.0,0.791,43.66,33.04,-24363.84,9570.8,16195.12,308.7,178.96,-148.54
2397,1.0,0.0,0.427,0.0,0.791,43.79,33.07,-24351.84,9630.8,16003.12,11.7,301.96,-67.54
2417,1.0,0.0,0.493,0.0,0.54,43.87,33.1,-24523.84,9682.8,16231.12,147.7,46.96,236.46
2437,1.0,0.0,0.493,0.0,0.719,43.97,33.15,-24395.84,9698.8,15955.12,43.7,119.96,181.46
2457,1.0,0.0,0.46,0.0,0.898,44.05,33.19,-24339.84,9758.8,16043.12,-48.3,124.96,115.46
2477,1.0,0.0,0.493,0.0,0.719,44.15,33.19,-24019.84,9578.8,15759.12,-315.3,269.96,-141.54
2497,1.0,0.0,0.263,0.0,0.862,44.25,33.15,-24331.84,9694.8,15899.12,-603.3,226.96,-229.54
2517,1.0,0.0,0.493,0.0,0.683,44.37,33.06,-24303.84,9170.8,15679.12,-458.3,-67.04,-78.54
2537,1.0,0.0,0.46,0.0,0.791,44.45,33.09,-24271.84,9358.8,15927.12,301.7,35.96,284.46
2557,1.0,0.0,0.328,0.0,0.791,44.51,33.19,-24455.84,9522.8,15987.12,646.7,-157.04,601.46
2577,1.0,0.0,0.525,0.0,0.648,44.57,33.31,-24319.84,9934.8,15959.12,137.7,165.96,231.46
2597,1.0,0.0,0.525,0.0,0.612,44.57,33.29,-24531.84,10054.8,16127.12,-754.3,-194.04,-11.54
2617,1.0,0.0,0.361,0.0,0.97,44.68,33.04,-24243.84,8658.8,15475.12,-926.3,-356.04,-194.54
2637,1.0,0.0,0.525,0.0,0.683,44.74,33.25,-24219.84,9674.8,16107.12,1250.7,234.96,235.46
2657,1.0,0.0,0.361,0.0,0.469,44.75,33.46,-24659.84,10326.8,16523.12,828.7,157.96,651.46
2677,1.0,0.0,0.328,0.0,0.576,44.73,33.52,-24583.84,10062.8,15983.12,-273.3,-404.04,639.46
2697,1.0,0.0,0.46,0.0,0.54,44.71,33.53,-24347.84,10038.8,15991.12,-672.3,-280.04,194.46
2717,1.0,0.0,0.296,0.0,0.683,44.7,33.55,-24439.84,10350.8,16331.12,-616.3,39.96,-136.54
2737,1.0,0.0,0.493,0.0,0.934,44.83,33.52,-24335.84,9382.8,15691.12,-306.3,238.96,-373.54
2757,1.0,0.0,0.361,0.0,0.397,44.87,33.62,-24567.84,9962.8,16027.12,133.7,-44.04,-258.54
2777,1.0,0.0,0.328,0.0,0.469,44.85,33.69,-24595.84,10062.8,16311.12,75.7,-179.04,-94.54
2797,1.0,0.0,0.361,0.0,0.826,44.84,33.66,-24095.84,9750.8,15995.12,-505.3,-142.04,-210.54
2817,1.0,0.0,0.427,0.0,0.683,44.89,33.53,-24543.84,9534.8,16151.12,-674.3,-42.04,-217.54
2837,1.0,0.0,0.361,0.0,0.576,44.97,33.49,-24375.84,9178.8,15655.12,-137.3,-236.04,330.46
2857,1.0,0.0,0.427,0.0,0.719,44.91,33.63,-24079.84,9838.8,16419.12,932.7,-57.04,683.46
2877,1.0,0.0,0.394,0.0,0.791,44.91,33.84,-24323.84,10150.8,16367.12,938.7,230.96,454.46
2897,1.0,0.0,0.427,0.0,1.0,44.86,33.93,-24435.84,10334.8,16131.12,-297.3,-274.04,121.46
2917,1.0,0.0,0.361,0.0,0.826,44.83,33.81,-23975.84,9762.8,15763.12,-1283.3,-294.04,-178.54
2937,1.0,0.0,0.493,0.0,0.719,44.91,33.59,-23887.84,8862.8,16079.12,-410.3,328.96,-295.54
2957,1.0,0.0,0.46,0.0,0.826,44.96,33.64,-24431.84,9766.8,16159.12,171.7,229.96,39.46
2977,1.0,0.0,0.394,0.0,0.791,44.96,33.68,-24339.84,9858.8,16259.12,103.7,1.96,247.46
2997,1.0,0.0,0.394,0.0,0.791,44.93,33.66,-24291.84,9882.8,16079.12,-532.3,-235.04,101.46
