timestamp,flex_1,flex_2,flex_3,flex_4,flex_5,kalman_pitch,kalman_roll,acc_x,acc_y,acc_z,gyro_x,gyro_y,gyro_z
0,1.0,0.0,0.025,0.281,1.0,109.66,-75.49,-3214.64,3555.36,21861.76,1803.5,7120.42,122.28
20,1.0,0.0,0.0,0.441,0.051,62.54,-56.78,-3230.64,3595.36,22457.76,-205.5,7645.42,-1314.72
40,1.0,0.0,0.0,0.281,0.0,38.58,-46.84,-3354.64,3923.36,23093.76,-1299.5,7340.42,-3014.72
60,1.0,0.0,0.0,0.0,0.997,23.41,-39.56,-3050.64,5435.36,23225.76,-906.5,5121.42,-4758.72
80,1.0,0.149,0.126,0.368,0.557,13.06,-35.58,-3718.64,4703.36,22993.76,-3769.5,2835.42,-4452.72
100,1.0,0.0,0.0,0.0,0.0,5.41,-34.19,-3734.64,3195.36,23369.76,-8171.5,789.42,-4797.72
120,1.0,0.0,0.0,0.208,0.861,-0.5,-33.49,-3046.64,2699.36,24465.76,-9181.5,821.42,-6133.72
140,1.0,0.0,0.0,0.259,0.456,-4.94,-33.17,-3874.64,2071.36,24589.76,-8035.5,911.42,-5728.72
160,0.97,0.015,0.0,0.398,0.997,-8.61,-33.71,-4406.64,803.36,24849.76,-10033.5,-851.58,-5553.72
180,1.0,0.0,0.0,0.565,0.051,-11.92,-34.44,-4442.64,1143.36,26277.76,-13337.5,-3286.58,-5539.72
200,1.0,0.133,0.0,0.0,0.0,-15.56,-36.22,-2762.64,-248.64,25341.76,-17202.5,-5351.58,-3709.72
220,1.0,0.0,0.0,0.901,0.0,-18.64,-38.62,-2102.64,-1444.64,26281.76,-21145.5,-4425.58,-2919.72
240,1.0,0.0,0.0,0.769,0.0,-20.97,-41.17,-2018.64,-2048.64,27649.76,-23543.5,-2177.58,-1888.72
260,1.0,0.0,0.302,0.573,0.659,-22.95,-44.22,-1738.64,-2108.64,26497.76,-27206.5,-98.58,-298.72
280,0.551,1.0,0.0,1.0,1.0,-24.63,-48.12,-1838.64,-3612.64,25809.76,-32077.5,457.42,2482.28
300,0.7,0.0,0.856,1.0,0.0,-26.12,-52.48,-118.64,-6956.64,24653.76,-32364.5,2003.42,4881.28
320,0.727,0.0,0.0,0.835,0.456,-27.53,-57.22,1837.36,-11092.64,23461.76,-32364.5,2229.42,9198.28
340,0.927,0.568,0.0,0.558,1.0,-28.47,-60.92,1045.36,-13032.64,22469.76,-25146.5,3599.42,14544.28
360,0.997,0.0,0.0,0.332,0.0,-29.23,-63.19,2661.36,-15424.64,22033.76,-15073.5,4891.42,19815.28
380,0.716,0.241,0.0,0.733,1.0,-29.77,-63.91,1781.36,-14864.64,21409.76,-4958.5,5702.42,25020.28
400,0.751,0.501,0.0,0.441,0.0,-29.73,-63.47,2201.36,-17360.64,22725.76,2817.5,8710.42,27828.28
420,0.97,0.0,0.0,0.296,0.557,-29.74,-62.63,3301.36,-10580.64,19989.76,4864.5,12528.42,29832.28
440,1.0,0.0,1.0,0.762,1.0,-29.08,-62.34,937.36,-10676.64,21117.76,369.5,15106.42,32085.28
460,0.623,0.3,0.0,0.813,0.76,-28.29,-62.56,-1014.64,-11332.64,20177.76,-1802.5,14550.42,32922.28
480,0.495,0.0,0.73,0.441,0.0,-27.35,-62.66,-1270.64,-11144.64,18053.76,965.5,16336.42,32922.28
500,0.425,0.032,0.353,0.091,1.0,-25.98,-62.59,-3062.64,-9416.64,16453.76,3145.5,19170.42,32922.28
520,0.452,0.0,0.0,0.237,1.0,-24.14,-62.16,-4822.64,-7324.64,16301.76,4689.5,22264.42,32922.28
540,0.732,0.0,0.0,0.653,0.0,-22.08,-61.58,-7066.64,-6356.64,16593.76,4968.5,22264.42,32922.28
560,0.682,0.191,0.0,0.543,0.0,-20.65,-61.09,-7098.64,-4088.64,14921.76,5413.5,20276.42,32922.28
580,0.615,0.0,0.0,0.208,1.0,-19.2,-61.13,-8670.64,-1960.64,12753.76,4405.5,20477.42,32922.28
600,0.634,0.0,0.0,0.675,0.0,-17.24,-61.58,-11126.64,-896.64,12241.76,2003.5,20043.42,32922.28
620,0.997,0.174,1.0,0.726,0.726,-15.28,-61.57,-12162.64,1003.36,12045.76,3771.5,18827.42,32922.28
640,0.935,0.0,0.0,1.0,0.0,-12.51,-61.13,-13726.64,1567.36,11657.76,7342.5,19878.42,32922.28
660,0.826,0.0,0.0,0.427,1.0,-8.62,-61.38,-15066.64,3047.36,9985.76,8335.5,21415.42,32922.28
680,0.935,0.133,0.806,1.0,0.726,-3.05,-59.72,-16790.64,5491.36,11125.76,8847.5,22103.42,32922.28
700,0.703,0.434,0.0,0.798,0.76,3.27,-55.68,-19234.64,7087.36,11201.76,11587.5,21287.42,32922.28
720,0.527,0.0,0.0,0.689,0.0,9.57,-47.52,-19234.64,8091.36,9901.76,14614.5,19156.42,32922.28
740,0.716,0.0,0.957,1.0,1.0,14.91,-34.31,-19322.64,8691.36,8201.76,17390.5,17953.42,32922.28
760,0.767,0.074,0.0,0.441,0.0,18.94,-22.89,-19330.64,11459.36,8021.76,19906.5,17744.42,32922.28
780,0.647,0.0,0.0,0.0,0.0,22.21,-12.16,-20174.64,14187.36,7545.76,20211.5,17895.42,29558.28
800,0.492,0.0,0.0,1.0,0.0,25.31,-2.35,-22006.64,15071.36,7289.76,16995.5,16622.42,26374.28
820,0.447,0.0,0.0,1.0,1.0,27.31,6.6,-21370.64,16683.36,5845.76,11793.5,13450.42,23110.28
840,0.471,0.0,1.0,0.478,1.0,28.9,14.57,-22398.64,19015.36,5169.76,8006.5,12429.42,18550.28
860,0.334,0.66,0.907,1.0,1.0,30.2,21.81,-22566.64,20119.36,4417.76,4743.5,11804.42,14739.28
880,0.249,0.057,0.0,1.0,0.0,31.22,28.59,-23018.64,19811.36,3705.76,2373.5,9884.42,11879.28
900,0.233,0.0,0.957,0.893,1.0,31.54,35.49,-21958.64,21035.36,2225.76,3878.5,7802.42,10424.28
920,0.388,0.0,1.0,0.842,1.0,31.79,43.0,-22298.64,20663.36,1917.76,9458.5,6950.42,9509.28
940,0.38,0.0,0.0,0.696,1.0,31.55,50.93,-22054.64,21559.36,1365.76,14598.5,4557.42,10698.28
960,0.372,0.35,0.0,0.915,0.557,30.83,59.01,-22134.64,22379.36,429.76,17660.5,1803.42,10736.28
980,0.222,0.158,0.0,0.398,1.0,29.53,66.78,-21614.64,23031.36,-626.24,17569.5,-1485.58,8395.28
1000,0.457,0.0,0.0,0.879,0.49,28.07,73.4,-22298.64,24787.36,-454.24,13331.5,-3012.58,1685.28
1020,0.497,0.409,0.0,0.245,0.0,26.37,77.95,-23174.64,24071.36,-102.24,1142.5,-6489.58,-5943.72
1040,0.334,0.024,0.0,0.762,0.0,24.29,80.25,-23746.64,23283.36,1597.76,-11730.5,-11047.58,-14012.72
1060,0.484,0.024,0.0,0.675,0.0,21.93,81.44,-24074.64,22139.36,3293.76,-17355.5,-15310.58,-21650.72
1081,0.529,0.066,0.0,0.653,0.0,19.4,81.6,-24186.64,20103.36,5201.76,-22711.5,-19457.58,-27682.72
1100,0.332,0.0,0.0,0.449,0.0,17.09,80.58,-24858.64,18231.36,7413.76,-27965.5,-21955.58,-32612.72
1120,0.27,0.116,0.0,0.274,0.0,15.83,77.91,-25742.64,14147.36,10473.76,-32364.5,-21591.58,-32612.72
1140,0.441,0.0,0.0,0.201,0.0,15.19,68.38,-26918.64,3499.36,13645.76,-32364.5,-20075.58,-32612.72
1160,0.433,0.0,0.982,0.624,1.0,13.65,58.44,-27826.64,-3536.64,16125.76,-32364.5,-19765.58,-32612.72
1180,0.345,0.0,0.0,1.0,0.22,11.32,48.31,-22070.64,-14152.64,11617.76,-26929.5,-15974.58,-32612.72
1200,0.289,0.0,0.0,1.0,1.0,9.6,42.55,-21746.64,-11636.64,11865.76,-93.5,-13436.58,-32343.72
1220,0.401,0.0,0.202,0.704,1.0,9.75,42.26,-19318.64,1979.36,14389.76,23501.5,-7310.58,-12399.72
1240,0.495,0.367,0.0,0.07,1.0,10.65,41.24,-26294.64,-1332.64,20673.76,15006.5,-3237.58,7111.28
1260,0.313,0.0,0.0,0.558,0.051,11.8,38.18,-29442.64,-3192.64,22585.76,1421.5,-1937.58,14403.28
1280,0.278,0.0,0.0,0.347,1.0,13.99,34.89,-29406.64,-556.64,20921.76,-2386.5,3483.42,15297.28
1300,0.348,0.0,0.453,1.0,0.0,17.17,31.23,-29686.64,1227.36,17829.76,-4983.5,7738.42,16127.28
1320,0.067,0.032,0.252,0.128,1.0,20.73,27.27,-28954.64,1643.36,16313.76,-6523.5,10311.42,18887.28
1340,0.3,0.0,0.025,0.711,0.389,24.89,24.39,-28994.64,3235.36,15337.76,-1757.5,13663.42,21486.28
1360,0.121,0.0,0.0,0.769,1.0,29.7,23.55,-29030.64,6087.36,13561.76,5431.5,15914.42,23896.28
1380,0.326,0.0,1.0,0.784,0.287,34.69,25.53,-29302.64,8339.36,12005.76,11109.5,16382.42,26112.28
1400,0.497,0.0,0.0,0.675,1.0,39.2,31.0,-28234.64,11327.36,10349.76,13612.5,16574.42,27423.28
1420,0.366,0.0,0.0,0.901,1.0,43.14,36.95,-27510.64,12231.36,9597.76,14381.5,15407.42,27933.28
1440,0.34,0.0,1.0,0.573,1.0,46.32,43.48,-26538.64,13895.36,9017.76,18234.5,14115.42,27480.28
1460,0.049,0.066,1.0,1.0,1.0,48.65,51.06,-24638.64,15819.36,6893.76,22651.5,13560.42,26194.28
1480,0.086,0.0,0.0,0.609,0.0,50.44,58.95,-23146.64,15747.36,5237.76,23546.5,12752.42,24061.28
1500,0.529,0.0,0.0,0.718,0.0,51.75,66.45,-22958.64,16679.36,4049.76,22175.5,11839.42,21060.28
1520,0.131,0.0,0.0,1.0,1.0,52.39,73.28,-22042.64,18899.36,3145.76,20502.5,10769.42,18194.28
1540,0.5,0.124,0.0,0.274,0.0,52.89,79.57,-22234.64,18803.36,2589.76,18172.5,10077.42,14661.28
1560,0.129,0.701,0.0,0.536,1.0,52.89,84.7,-22446.64,19491.36,2217.76,12215.5,7259.42,11647.28
1580,0.316,0.0,0.0,0.39,0.0,52.37,89.16,-21898.64,19319.36,697.76,7226.5,4764.42,7696.28
1600,0.163,0.0,0.0,0.689,0.287,51.32,93.12,-21058.64,19151.36,-658.24,3612.5,2451.42,4393.28
1620,0.19,0.0,1.0,0.449,0.828,50.22,96.57,-21406.64,19315.36,-578.24,1493.5,1486.42,1540.28
1640,0.294,0.0,0.0,0.675,0.0,49.0,99.85,-21998.64,19631.36,-414.24,1766.5,-143.58,151.28
1660,0.284,0.015,0.0,0.055,0.0,47.48,103.06,-22194.64,20023.36,-166.24,2915.5,-2597.58,-251.72
1680,0.254,0.024,0.0,0.901,0.0,45.68,106.43,-22350.64,19963.36,-634.24,4474.5,-5053.58,-536.72
1700,0.273,0.45,0.0,0.485,0.0,43.49,109.72,-21770.64,20467.36,-1194.24,4832.5,-7302.58,-1417.72
1720,0.551,0.024,0.0,1.0,0.997,41.23,112.66,-21826.64,20615.36,-1682.24,3128.5,-8287.58,-4454.72
1740,0.273,0.0,0.0,1.0,0.49,38.97,114.77,-21786.64,19911.36,-1494.24,-1971.5,-9347.58,-9830.72
1760,0.401,0.0,0.0,1.0,1.0,36.81,114.86,-24118.64,20551.36,997.76,-12339.5,-12085.58,-18517.72
1780,0.142,0.0,0.0,0.886,0.0,34.21,112.59,-25682.64,21667.36,4361.76,-23963.5,-17569.58,-27324.72
1800,0.281,0.0,1.0,0.813,1.0,31.03,108.56,-26518.64,21331.36,7733.76,-32364.5,-23878.58,-32612.72
1820,0.5,0.651,0.73,1.0,1.0,27.99,104.19,-26430.64,19767.36,10173.76,-32364.5,-25382.58,-32612.72
1840,0.535,0.0,0.0,0.558,0.895,26.04,99.25,-27694.64,15363.36,12097.76,-32364.5,-23640.58,-32612.72
1860,0.222,0.0,0.0,1.0,0.557,25.32,92.0,-26886.64,8871.36,12753.76,-32364.5,-21427.58,-32612.72
1880,0.27,0.0,1.0,0.398,1.0,23.31,79.41,-20698.64,19.36,9597.76,-32364.5,-20138.58,-32612.72
1900,0.252,0.0,0.0,0.0,0.0,21.21,67.08,-20482.64,-9532.64,8277.76,-32364.5,-13846.58,-32612.72
1920,0.401,0.0,0.0,0.835,1.0,19.28,58.19,-18622.64,-9380.64,6125.76,-9442.5,-11578.58,-30518.72
1940,0.067,0.0,0.353,0.726,0.0,18.27,53.08,-18542.64,-6448.64,9137.76,11066.5,-7083.58,-10392.72
1960,0.249,0.0,0.0,0.893,0.051,18.52,49.88,-24406.64,-7184.64,15745.76,14839.5,-3580.58,-211.72
1980,0.177,0.0,0.0,0.419,0.524,19.46,47.09,-27446.64,-4988.64,17369.76,13962.5,-1962.58,2428.28
2000,0.324,0.0,0.353,0.755,0.0,20.7,43.33,-27574.64,-2124.64,16633.76,5536.5,-1850.58,1189.28
2020,0.185,0.199,0.907,0.565,1.0,22.17,38.51,-27638.64,-1268.64,16373.76,-3120.5,-744.58,-385.72
2040,0.182,0.0,0.0,0.281,0.0,23.77,33.36,-27606.64,-1532.64,15845.76,-5492.5,478.42,-352.72
2060,0.815,0.0,0.68,0.0,1.0,25.41,28.58,-27326.64,-1984.64,14573.76,-1789.5,1041.42,1032.28
2080,0.169,0.0,0.0,1.0,0.0,27.24,24.78,-27590.64,-696.64,14129.76,3391.5,1328.42,2512.28
2100,0.233,0.0,0.0,1.0,0.0,29.14,21.87,-28094.64,1143.36,14857.76,5060.5,880.42,3372.28
2120,0.604,0.0,1.0,0.675,0.287,31.01,19.4,-28374.64,2447.36,15845.76,3629.5,838.42,3104.28
2139,0.334,0.0,0.0,0.93,0.0,32.75,16.48,-28338.64,2391.36,15837.76,167.5,388.42,1825.28
2160,0.187,0.0,1.0,1.0,0.0,34.24,12.9,-27746.64,1939.36,15345.76,-3487.5,-605.58,404.28
2180,0.289,0.0,0.176,0.849,0.0,35.57,8.82,-27182.64,1055.36,14445.76,-4777.5,-986.58,-314.72
2199,0.276,0.392,0.0,0.893,0.0,36.74,4.88,-26530.64,315.36,13813.76,-2628.5,-1112.58,32.28
2219,0.27,0.0,0.101,0.66,0.0,38.02,2.04,-26522.64,1171.36,14509.76,1449.5,-332.58,656.28
2240,0.0,0.685,0.0,0.478,0.355,39.46,-0.13,-26846.64,2255.36,14909.76,2928.5,244.42,1026.28
2260,0.286,0.0,0.0,0.973,1.0,40.79,-2.35,-26918.64,2155.36,15005.76,2082.5,-47.58,1048.28
2279,0.273,0.0,0.327,1.0,0.0,42.05,-4.8,-26694.64,1875.36,14657.76,1098.5,-80.58,752.28
2299,0.193,0.0,0.0,0.033,0.0,43.26,-7.26,-26650.64,1587.36,14449.76,1334.5,29.42,660.28
2320,0.313,0.0,0.176,1.0,0.0,44.42,-9.38,-26598.64,1751.36,14513.76,2722.5,-86.58,1121.28
2340,0.353,0.0,0.0,0.587,0.0,45.6,-11.05,-26854.64,2367.36,15085.76,3147.5,113.42,1304.28
2359,0.284,0.743,1.0,0.675,0.0,46.82,-12.96,-27374.64,2747.36,15057.76,436.5,154.42,803.28
2380,0.369,0.0,0.0,0.908,1.0,47.86,-15.6,-27322.64,1815.36,14633.76,-2540.5,-370.58,472.28
2400,0.516,0.141,1.0,0.543,0.895,48.8,-18.36,-27370.64,1071.36,14661.76,-2990.5,-191.58,-3.72
2419,0.374,0.0,1.0,0.077,1.0,49.74,-20.67,-27282.64,1251.36,14701.76,-987.5,-44.58,35.28
2439,0.086,0.0,0.0,1.0,0.895,50.76,-22.45,-27246.64,2047.36,14685.76,844.5,160.42,383.28
2459,0.289,0.0,0.0,0.376,0.0,51.76,-24.06,-27570.64,2299.36,15109.76,291.5,240.42,297.28
2480,0.206,0.333,0.856,0.675,1.0,52.65,-25.86,-27442.64,2003.36,14885.76,-478.5,-58.58,249.28
2500,0.404,0.0,0.0,0.0,0.0,53.48,-27.79,-27174.64,1659.36,14449.76,-561.5,-175.58,216.28
2519,0.212,0.0,0.0,1.0,0.0,54.27,-29.63,-27078.64,1491.36,14365.76,67.5,-63.58,226.28
2539,0.209,0.71,0.0,0.893,0.0,55.05,-31.15,-26918.64,1683.36,14665.76,824.5,247.42,199.28
2559,0.388,0.0,0.101,0.0,1.0,55.88,-32.53,-27250.64,1951.36,14845.76,671.5,506.42,8.28
2579,0.297,0.0,0.277,0.405,0.0,56.61,-33.8,-27366.64,1955.36,15101.76,505.5,220.42,0.28
2599,0.348,0.015,1.0,0.0,0.0,57.27,-35.11,-27098.64,1911.36,14745.76,678.5,-111.58,96.28
2619,0.374,1.0,0.0,0.908,0.0,57.86,-36.37,-26934.64,1875.36,14741.76,654.5,-283.58,91.28
2640,0.532,0.0,0.831,0.405,0.0,58.44,-37.72,-26826.64,1751.36,14609.76,118.5,-119.58,-218.72
2660,0.455,0.0,0.0,0.485,1.0,58.99,-39.01,-27170.64,1623.36,15217.76,-687.5,244.42,-564.72
2680,0.374,0.0,0.0,0.842,0.0,59.54,-40.27,-27310.64,1611.36,15061.76,-586.5,175.42,-333.72
2699,0.377,0.517,1.0,0.339,1.0,60.05,-41.44,-27286.64,1659.36,14865.76,-79.5,-54.58,84.28
2720,0.388,0.208,0.0,0.492,0.0,60.53,-42.52,-27090.64,1683.36,14693.76,419.5,-131.58,312.28
2739,0.316,0.0,0.0,0.084,0.0,61.05,-43.55,-27122.64,1855.36,14729.76,126.5,163.42,42.28
2760,0.334,0.0,0.403,0.667,1.0,61.56,-44.56,-27402.64,1811.36,14933.76,-417.5,355.42,-168.72
2779,0.313,0.208,0.327,0.624,0.0,62.03,-45.5,-27374.64,1795.36,15009.76,-278.5,253.42,27.28
2799,0.163,0.0,0.403,0.0,1.0,62.47,-46.4,-27426.64,1787.36,14709.76,161.5,-13.58,377.28
2819,0.334,1.0,0.0,0.325,0.963,62.88,-47.21,-27214.64,1895.36,14577.76,566.5,-40.58,440.28
2839,0.308,0.0,0.353,1.0,0.0,63.33,-47.86,-27254.64,2211.36,14797.76,531.5,209.42,254.28
2860,0.118,0.3,0.0,0.252,1.0,63.73,-48.65,-27218.64,2019.36,14785.76,-392.5,196.42,-43.72
2880,0.22,0.0,1.0,1.0,0.0,64.08,-49.56,-27126.64,1783.36,14693.76,-903.5,124.42,-169.72
2899,0.34,0.0,1.0,0.704,0.017,64.41,-50.41,-27134.64,1679.36,14469.76,-268.5,55.42,36.28
2919,0.262,0.0,1.0,0.0,0.0,64.68,-51.1,-27102.64,1599.36,14493.76,727.5,-73.58,297.28
2940,0.294,0.509,0.0,0.755,0.0,64.95,-51.49,-26962.64,1995.36,14693.76,1485.5,-70.58,317.28
2960,0.497,0.986,1.0,1.0,0.0,65.25,-51.79,-26994.64,2211.36,14861.76,1253.5,112.42,165.28
2979,0.334,0.0,0.0,1.0,0.0,65.53,-52.29,-27086.64,2155.36,14745.76,56.5,75.42,-145.72
