timestamp,flex_1,flex_2,flex_3,flex_4,flex_5,kalman_pitch,kalman_roll,acc_x,acc_y,acc_z,gyro_x,gyro_y,gyro_z
0,0.0,0.724,0.457,0.459,0.907,-3.35,-24.79,-581.2,-2727.76,14454.48,-606.38,1137.7,-59.94
19,0.0,0.717,0.426,0.448,0.615,-19.34,-34.46,-625.2,-3167.76,14930.48,-1008.38,195.7,219.06
38,0.0,0.745,0.518,0.463,0.81,-28.37,-41.3,-617.2,-4295.76,14706.48,-823.38,-1124.3,560.06
57,0.0,0.724,0.578,0.448,0.859,-34.64,-46.26,10.8,-4315.76,14218.48,561.62,-641.3,187.06
76,0.0,0.717,0.518,0.526,0.81,-39.2,-49.28,586.8,-4107.76,14494.48,2147.62,524.7,1453.06
96,0.0,0.738,0.487,0.445,0.42,-42.39,-51.95,-337.2,-4115.76,13986.48,2561.62,1806.7,3238.06
115,0.0,0.731,0.548,0.512,0.712,-44.3,-54.27,-377.2,-5207.76,14298.48,1352.62,3312.7,3221.06
134,0.0,0.724,0.457,0.459,0.712,-45.58,-55.1,-1257.2,-4123.76,15374.48,1610.62,5312.7,2208.06
153,0.0,0.738,0.518,0.459,0.712,-46.13,-55.34,-1293.2,-5775.76,16882.48,3081.62,4198.7,2177.06
172,0.0,0.731,0.518,0.473,0.224,-47.27,-54.04,-261.2,-3623.76,18022.48,5621.62,2272.7,2465.06
191,0.0,0.717,0.548,0.406,0.859,-48.54,-52.42,-553.2,-2851.76,18350.48,6129.62,317.7,3064.06
210,0.0,0.731,0.518,0.459,0.761,-49.92,-50.99,-13.2,-2227.76,18322.48,4431.62,-290.3,2716.06
229,0.0,0.717,0.518,0.459,0.761,-50.59,-50.25,-961.2,-3843.76,19426.48,2204.62,-26.3,2761.06
248,0.0,0.717,0.548,0.459,0.81,-50.92,-49.37,-1505.2,-4719.76,20766.48,3323.62,-715.3,2871.06
267,0.0,0.731,0.518,0.459,0.761,-51.31,-48.08,-881.2,-5031.76,21210.48,6940.62,-1180.3,2803.06
286,0.0,0.724,0.487,0.452,0.81,-51.8,-46.21,10.8,-4107.76,21282.48,10247.62,-596.3,2652.06
305,0.0,0.731,0.365,0.427,0.712,-52.07,-43.86,450.8,-3387.76,22482.48,12031.62,504.7,2766.06
325,0.0,0.724,0.518,0.424,0.859,-52.08,-41.19,222.8,-2739.76,24274.48,12311.62,1041.7,2714.06
345,0.0,0.731,0.426,0.452,0.859,-51.92,-38.77,730.8,-3059.76,25326.48,11527.62,1716.7,2406.06
365,0.0,0.752,0.639,0.448,0.663,-51.54,-36.7,1474.8,-4111.76,26474.48,10939.62,2819.7,1763.06
385,0.0,0.731,0.457,0.456,0.761,-50.83,-34.74,1978.8,-5319.76,28038.48,11624.62,4266.7,2047.06
405,0.0,0.738,0.457,0.456,0.907,-49.77,-32.7,3046.8,-5467.76,28410.48,12934.62,7522.7,2514.06
425,0.0,0.738,0.639,0.459,0.712,-48.2,-30.86,4198.8,-5375.76,28574.48,12202.62,12228.7,2227.06
445,0.0,0.745,0.457,0.456,0.761,-46.14,-29.26,4674.8,-5195.76,29514.48,10549.62,16075.7,2739.06
465,0.0,0.724,0.487,0.466,0.712,-43.91,-27.9,5298.8,-5223.76,29322.48,9699.62,18519.7,3569.06
485,0.0,0.745,0.487,0.452,0.907,-41.5,-26.91,4950.8,-5371.76,28526.48,8231.62,20806.7,4668.06
505,0.0,0.745,0.578,0.516,0.712,-39.01,-26.42,4538.8,-6051.76,27354.48,6499.62,22612.7,5257.06
525,0.0,0.745,0.487,0.445,0.712,-36.38,-25.87,4094.8,-6739.76,26766.48,8141.62,24318.7,6411.06
545,0.0,0.752,0.457,0.463,0.81,-33.65,-24.74,3362.8,-6195.76,26290.48,12257.62,26123.7,5864.06
565,0.0,0.738,0.487,0.441,0.956,-31.02,-23.19,2010.8,-4299.76,25670.48,13915.62,26736.7,4592.06
585,0.0,0.71,0.639,0.505,1.0,-28.58,-21.73,86.8,-3251.76,24838.48,13149.62,25972.7,2954.06
605,0.0,0.787,0.487,0.47,0.517,-26.49,-20.38,-1381.2,-2759.76,24170.48,12761.62,24104.7,2052.06
624,0.0,0.731,0.426,0.406,0.712,-24.9,-18.92,-2521.2,-1711.76,23650.48,13479.62,22245.7,1326.06
642,0.0,0.745,0.457,0.459,1.0,-23.59,-17.4,-3561.2,-1071.76,23202.48,13763.62,20514.7,24.06
662,0.0,0.752,0.487,0.452,0.859,-22.43,-15.78,-4249.2,-267.76,22370.48,13625.62,19586.7,-1837.94
681,0.0,0.759,0.518,0.452,0.81,-21.53,-14.41,-5353.2,220.24,21838.48,12514.62,18486.7,-3136.94
701,0.0,0.759,0.457,0.456,0.761,-20.83,-13.39,-6333.2,292.24,20966.48,10929.62,17222.7,-4009.94
720,0.0,0.745,0.457,0.459,0.859,-20.32,-12.64,-7105.2,240.24,20430.48,9882.62,15866.7,-4818.94
739,0.0,0.731,0.426,0.456,0.42,-20.02,-11.85,-7797.2,1028.24,19730.48,9228.62,14707.7,-5237.94
758,0.0,0.682,0.518,0.463,1.0,-20.07,-10.78,-8309.2,3104.24,17622.48,6759.62,15106.7,-5517.94
778,0.0,0.745,0.365,0.434,1.0,-19.92,-10.63,-9769.2,2796.24,16550.48,1883.62,15570.7,-6820.94
797,0.0,0.745,0.518,0.463,1.0,-19.42,-11.31,-11597.2,2088.24,17058.48,-1748.38,13502.7,-6670.94
815,0.0,0.752,0.487,0.456,0.566,-19.36,-12.02,-12025.2,2344.24,16350.48,-2645.38,10643.7,-5922.94
835,0.0,0.836,0.578,0.463,0.81,-19.19,-13.11,-13061.2,1412.24,16158.48,-1747.38,8024.7,-6041.94
854,0.0,0.752,0.457,0.431,1.0,-19.01,-13.75,-13613.2,1468.24,16106.48,988.62,6366.7,-5021.94
874,0.0,0.752,0.518,0.445,0.907,-18.42,-13.75,-14645.2,1800.24,16810.48,3263.62,5203.7,-3848.94
894,0.0,0.773,0.457,0.452,0.81,-17.67,-13.47,-15581.2,1940.24,18214.48,3721.62,3281.7,-1961.94
912,0.0,0.696,0.426,0.459,0.81,-16.96,-12.97,-16093.2,2476.24,19462.48,3475.62,1745.7,99.06
933,0.0,0.752,0.457,0.459,0.712,-16.5,-12.24,-16109.2,3572.24,20706.48,2383.62,519.7,1991.06
953,0.0,0.787,0.518,0.459,0.712,-16.25,-11.18,-15245.2,4900.24,20206.48,1763.62,894.7,3024.06
972,0.0,0.752,0.518,0.445,1.0,-15.64,-9.99,-15753.2,5596.24,20818.48,1671.62,2285.7,3075.06
992,0.0,0.752,0.457,0.459,1.0,-14.93,-8.62,-16165.2,6380.24,22034.48,2220.62,2429.7,2637.06
1013,0.0,0.745,0.518,0.452,0.468,-14.42,-7.14,-16045.2,7360.24,22998.48,2109.62,1470.7,1978.06
1033,0.0,0.745,0.518,0.463,1.0,-14.13,-5.66,-15645.2,8216.24,23346.48,1310.62,688.7,1596.06
1053,0.0,0.752,0.518,0.452,0.517,-13.92,-4.35,-15965.2,8560.24,24302.48,518.62,-272.3,702.06
1072,0.0,0.801,0.548,0.438,0.859,-13.85,-3.06,-15861.2,8988.24,25498.48,762.62,-1392.3,-148.94
1091,0.0,0.745,0.518,0.498,1.0,-13.98,-1.62,-15433.2,9496.24,26238.48,1798.62,-2262.3,-1037.94
1110,0.0,0.724,0.426,0.448,0.761,-14.16,0.09,-14809.2,10856.24,26286.48,2599.62,-1982.3,-2231.94
1129,0.0,0.731,0.457,0.456,0.615,-14.31,1.67,-14641.2,11452.24,26422.48,1512.62,-1722.3,-3756.94
1148,0.0,0.745,0.457,0.452,0.615,-14.5,2.96,-14057.2,11840.24,26958.48,-255.38,-1464.3,-4854.94
1166,0.0,0.731,0.518,0.452,1.0,-14.75,4.0,-13305.2,11380.24,27758.48,-807.38,-1156.3,-5952.94
1186,0.0,0.668,0.457,0.456,0.761,-15.05,4.91,-12745.2,10768.24,28402.48,-558.38,-1127.3,-7407.94
1205,0.0,0.752,0.548,0.459,0.663,-15.42,5.79,-12413.2,9712.24,28610.48,624.62,-1408.3,-8794.94
1225,0.0,0.773,0.518,0.452,1.0,-15.82,6.8,-12537.2,9228.24,28538.48,2224.62,-1579.3,-10074.94
1245,0.0,0.724,0.518,0.441,0.81,-16.19,7.91,-12405.2,9436.24,28058.48,2806.62,-1437.3,-10720.94
1265,0.0,0.731,0.487,0.441,0.859,-16.47,8.74,-12521.2,8864.24,27746.48,1706.62,-948.3,-11676.94
1285,0.0,0.731,0.518,0.456,0.81,-16.77,9.2,-12845.2,7360.24,28166.48,1197.62,-1663.3,-12550.94
1305,0.0,0.752,0.457,0.459,0.81,-17.12,9.7,-12681.2,6612.24,28142.48,2555.62,-1959.3,-13074.94
1325,0.0,0.738,0.518,0.448,0.907,-17.35,10.3,-12937.2,6532.24,28310.48,3458.62,-1622.3,-13626.94
1345,0.0,0.71,0.548,0.452,0.761,-17.51,10.78,-12869.2,6536.24,27878.48,2792.62,-1186.3,-13801.94
1365,0.0,0.731,0.487,0.452,0.663,-17.53,10.89,-12913.2,5844.24,27158.48,1113.62,-197.3,-14448.94
1385,0.0,0.731,0.822,0.456,0.859,-17.43,10.7,-13521.2,4968.24,27154.48,143.62,-203.3,-14854.94
1405,0.0,0.731,0.518,0.456,0.81,-17.29,10.35,-14065.2,4120.24,26758.48,145.62,-618.3,-14881.94
1425,0.0,0.731,0.518,0.452,0.859,-17.18,10.08,-14129.2,3976.24,26578.48,737.62,-891.3,-14594.94
1445,0.0,0.745,0.518,0.459,0.81,-17.08,9.79,-14121.2,3864.24,26530.48,771.62,-944.3,-14868.94
1465,0.0,0.731,0.609,0.459,0.663,-16.98,9.37,-14397.2,2760.24,27166.48,1235.62,-1516.3,-15509.94
1484,0.0,0.724,0.548,0.452,0.615,-16.96,9.08,-14401.2,2372.24,27098.48,2487.62,-2058.3,-15682.94
1504,0.0,0.745,0.518,0.448,0.712,-16.89,8.74,-14677.2,2300.24,26834.48,2297.62,-2120.3,-15543.94
1524,0.0,0.731,0.487,0.456,0.663,-16.75,8.1,-15065.2,1740.24,27310.48,863.62,-2245.3,-15328.94
1544,0.0,0.731,0.518,0.456,0.761,-16.58,7.15,-15593.2,36.24,27898.48,503.62,-2674.3,-14823.94
1565,0.0,0.717,0.457,0.445,1.0,-16.3,6.24,-16201.2,-815.76,28058.48,1435.62,-2738.3,-13816.94
1583,0.0,0.731,0.518,0.452,0.663,-15.87,5.47,-16361.2,-439.76,27806.48,1954.62,-2109.3,-12132.94
1602,0.0,0.745,0.487,0.456,0.712,-15.35,4.73,-16629.2,-283.76,28022.48,1799.62,-1689.3,-10896.94
1621,0.0,0.752,0.365,0.445,0.81,-14.8,4.11,-16485.2,300.24,28158.48,1719.62,-1184.3,-9662.94
1642,0.0,0.682,0.457,0.456,1.0,-14.16,3.53,-16377.2,1304.24,27642.48,701.62,-319.3,-8770.94
1662,0.0,0.689,0.518,0.459,0.81,-13.41,2.72,-17433.2,804.24,27558.48,-338.38,-667.3,-8629.94
1680,0.0,0.717,0.518,0.459,0.859,-12.78,2.1,-17413.2,104.24,27498.48,1610.62,-1447.3,-8089.94
1700,0.0,0.577,0.457,0.452,0.859,-12.26,1.99,-16869.2,1992.24,27410.48,2673.62,-1430.3,-7515.94
1721,0.0,0.752,0.548,0.452,0.859,-11.68,1.65,-17089.2,2548.24,27266.48,462.62,-1152.3,-7399.94
1741,0.0,0.731,0.426,0.456,0.81,-11.08,0.86,-17365.2,1428.24,27582.48,-1390.38,-1250.3,-6918.94
1760,0.0,0.801,0.578,0.456,0.615,-10.54,0.06,-17337.2,1160.24,27654.48,-1524.38,-1590.3,-6081.94
1779,0.0,0.731,0.457,0.459,0.663,-9.96,-0.64,-17157.2,1624.24,27438.48,-1557.38,-1047.3,-5606.94
1798,0.0,0.738,0.487,0.459,0.761,-9.33,-1.29,-16985.2,1548.24,27034.48,-1305.38,-412.3,-5185.94
1816,0.0,0.808,0.578,0.456,0.566,-8.65,-1.88,-17293.2,1600.24,26914.48,-1123.38,-225.3,-4739.94
1835,0.0,0.745,0.457,0.459,0.712,-7.95,-2.39,-17561.2,1500.24,26554.48,-520.38,-425.3,-4190.94
1854,0.0,0.724,0.457,0.452,0.761,-7.36,-2.76,-17373.2,1496.24,26178.48,381.62,-812.3,-3720.94
1873,0.0,0.731,0.487,0.47,0.859,-6.87,-2.9,-16973.2,2524.24,25954.48,625.62,-987.3,-2931.94
1892,0.0,0.717,0.152,0.459,0.81,-6.33,-3.16,-17169.2,2636.24,25950.48,-421.38,-746.3,-2595.94
1911,0.0,0.717,0.426,0.463,0.615,-5.84,-3.51,-17237.2,2088.24,26538.48,-589.38,-955.3,-2243.94
1931,0.0,0.703,0.365,0.463,1.0,-5.42,-3.73,-17397.2,2040.24,27038.48,317.62,-1472.3,-1712.94
1950,0.0,0.738,0.487,0.459,0.712,-5.03,-3.8,-17241.2,1856.24,27174.48,1507.62,-1471.3,-1050.94
1969,0.0,0.731,0.548,0.438,0.615,-4.65,-3.68,-17061.2,2848.24,27398.48,1706.62,-1196.3,-227.94
1987,0.0,0.731,0.457,0.452,1.0,-4.33,-3.64,-16833.2,3628.24,27558.48,100.62,-1189.3,124.06
2007,0.0,0.724,0.426,0.452,0.615,-4.01,-3.83,-16629.2,3840.24,27686.48,-1637.38,-906.3,122.06
2027,0.0,0.717,0.457,0.459,0.663,-3.64,-4.13,-16721.2,3244.24,27898.48,-2009.38,-613.3,-192.94
2045,0.0,0.738,0.487,0.441,0.761,-3.31,-4.35,-16697.2,2664.24,28234.48,-845.38,-723.3,-47.94
2064,0.0,0.724,0.548,0.456,1.0,-2.98,-4.3,-16553.2,3308.24,27918.48,331.62,-500.3,404.06
2084,0.0,0.724,0.518,0.438,0.81,-2.61,-4.16,-16473.2,4284.24,27798.48,-185.38,-120.3,638.06
2103,0.0,0.71,0.487,0.459,0.81,-2.25,-4.18,-16361.2,4316.24,27890.48,-1405.38,70.7,565.06
2123,0.0,0.717,0.03,0.456,0.81,-1.89,-4.27,-16409.2,3608.24,27774.48,-1033.38,77.7,531.06
2143,0.0,0.752,0.426,0.456,0.81,-1.53,-4.15,-16501.2,3788.24,28010.48,119.62,78.7,651.06
2163,0.0,0.724,0.548,0.452,1.0,-1.25,-3.92,-16297.2,4296.24,27842.48,387.62,-151.3,756.06
2183,0.0,0.724,0.518,0.456,0.859,-0.97,-3.65,-16189.2,4684.24,27906.48,165.62,15.7,682.06
2203,0.0,0.724,0.426,0.473,0.859,-0.7,-3.49,-16157.2,4616.24,27922.48,-358.38,56.7,744.06
2223,0.0,0.724,0.518,0.456,1.0,-0.42,-3.39,-16073.2,4116.24,27702.48,-288.38,279.7,669.06
2243,0.0,0.717,0.396,0.452,0.859,-0.1,-3.15,-16081.2,4448.24,27706.48,289.62,673.7,580.06
2263,0.0,0.731,0.487,0.459,0.859,0.23,-2.93,-16181.2,4416.24,27330.48,248.62,592.7,657.06
2284,0.0,0.717,0.518,0.441,0.761,0.48,-2.65,-15953.2,5016.24,27174.48,-44.38,479.7,795.06
2303,0.0,0.717,0.457,0.459,0.712,0.7,-2.49,-15945.2,5016.24,27014.48,-795.38,354.7,566.06
2323,0.0,0.717,0.578,0.441,0.907,0.93,-2.45,-16073.2,4268.24,26882.48,-806.38,296.7,448.06
2343,0.0,0.724,0.548,0.452,0.859,1.16,-2.39,-16029.2,4040.24,26486.48,-378.38,400.7,580.06
2363,0.0,0.71,0.518,0.466,0.81,1.4,-2.21,-16209.2,4664.24,26454.48,-345.38,266.7,912.06
2383,0.0,0.717,0.518,0.445,0.907,1.53,-2.05,-16281.2,4912.24,26758.48,-759.38,-435.3,964.06
2403,0.0,0.731,0.639,0.466,0.81,1.56,-1.8,-15909.2,5504.24,26882.48,-831.38,-667.3,762.06
2423,0.0,0.745,0.548,0.448,0.712,1.67,-1.66,-16057.2,4716.24,27546.48,-491.38,-197.3,178.06
2443,0.0,0.717,0.457,0.452,1.0,1.83,-1.48,-16281.2,3832.24,27770.48,756.62,-136.3,136.06
2463,0.0,0.738,0.67,0.456,0.81,1.98,-1.03,-16181.2,4964.24,27622.48,1381.62,-2.3,566.06
2483,0.0,0.717,0.578,0.466,0.81,2.06,-0.67,-15805.2,5608.24,27254.48,93.62,-17.3,559.06
2503,0.0,0.724,0.578,0.452,0.81,2.15,-0.54,-15729.2,5364.24,27310.48,-1098.38,136.7,141.06
2524,0.0,0.745,0.487,0.448,0.81,2.26,-0.5,-16189.2,4356.24,27718.48,-580.38,-174.3,-358.94
2542,0.0,0.71,0.365,0.456,0.712,2.33,-0.3,-16265.2,4120.24,27638.48,830.62,-484.3,-182.94
2562,0.0,0.717,0.578,0.477,0.468,2.41,0.03,-16085.2,4712.24,27650.48,1077.62,-246.3,-28.94
2582,0.0,0.689,0.7,0.456,1.0,2.52,0.29,-15865.2,5216.24,27498.48,100.62,273.7,65.06
2602,0.0,0.745,0.518,0.459,0.859,2.67,0.31,-16061.2,4540.24,27314.48,-717.38,335.7,-67.94
2622,0.0,0.78,0.548,0.452,0.81,2.81,0.41,-16205.2,4336.24,27494.48,-6.38,149.7,-94.94
2642,0.0,0.829,0.578,0.459,0.712,2.93,0.61,-16181.2,4556.24,27402.48,550.62,52.7,-99.94
2662,0.0,0.724,0.426,0.463,0.81,3.02,0.82,-16073.2,4928.24,27154.48,118.62,76.7,-92.94
2682,0.0,0.724,0.639,0.448,0.859,3.15,0.9,-16165.2,4568.24,27346.48,-253.38,205.7,-76.94
2702,0.0,0.71,0.487,0.452,0.663,3.27,1.0,-16141.2,4552.24,27350.48,-108.38,273.7,-57.94
2722,0.0,0.71,0.487,0.456,0.907,3.41,1.08,-16281.2,4180.24,27022.48,179.62,246.7,-205.94
2742,0.0,0.808,0.396,0.452,0.761,3.5,1.29,-16185.2,4584.24,26998.48,672.62,56.7,-93.94
2762,0.0,0.71,0.365,0.452,0.761,3.57,1.5,-16069.2,4892.24,26786.48,310.62,58.7,11.06
2782,0.0,0.724,0.365,0.452,0.761,3.66,1.59,-16193.2,4940.24,26626.48,-584.38,66.7,-24.94
2802,0.0,0.724,0.518,0.452,1.0,3.74,1.61,-16305.2,4320.24,26898.48,-245.38,-3.3,-39.94
2822,0.0,0.724,0.518,0.445,0.81,3.81,1.76,-16125.2,4772.24,26702.48,80.62,67.7,-77.94
2842,0.0,0.752,0.548,0.438,0.907,3.86,1.83,-16249.2,4604.24,27142.48,-186.38,-110.3,-151.94
2862,0.0,0.717,0.487,0.459,0.761,3.87,1.93,-16341.2,4584.24,27222.48,76.62,-483.3,142.06
2882,0.0,0.724,0.426,0.431,0.81,3.9,2.04,-16237.2,4712.24,27098.48,-39.38,-271.3,110.06
2902,0.0,0.752,0.365,0.526,0.712,3.91,2.15,-16129.2,4716.24,27134.48,-36.38,-190.3,78.06
2922,0.0,0.71,0.578,0.456,1.0,3.93,2.3,-16041.2,4988.24,27618.48,87.62,5.7,-140.94
2942,0.0,0.703,0.487,0.427,0.81,3.97,2.4,-16125.2,4648.24,27646.48,57.62,3.7,-149.94
2962,0.0,0.71,0.396,0.445,0.859,4.05,2.48,-16237.2,4832.24,27494.48,-204.38,248.7,-273.94
2982,0.0,0.717,0.7,0.445,0.712,4.1,2.51,-16341.2,4500.24,27234.48,-224.38,-132.3,0.06
