timestamp,flex_1,flex_2,flex_3,flex_4,flex_5,kalman_pitch,kalman_roll,acc_x,acc_y,acc_z,gyro_x,gyro_y,gyro_z
0,1.0,0.0,0.0,0.0,0.0,78.69,236.34,-1223.92,-3558.56,15419.12,-3283.32,2535.28,-550.32
19,0.995,0.0,0.398,0.865,1.0,49.34,164.71,-1747.92,-3538.56,15995.12,-3127.32,2785.28,375.68
40,1.0,0.0,0.0,0.0,0.0,31.16,120.99,-1731.92,-3278.56,16383.12,-1861.32,2336.28,1025.68
58,1.0,0.0,0.728,0.687,1.0,18.06,91.9,-963.92,-2334.56,16447.12,62.68,1659.28,952.68
79,1.0,0.0,0.0,0.0,0.0,8.38,71.13,-1035.92,-1730.56,16443.12,1168.68,1880.28,664.68
99,1.0,0.0,1.0,0.5,0.0,1.03,54.99,-1151.92,-1966.56,16335.12,290.68,1865.28,498.68
119,1.0,0.0,0.934,0.0,0.0,-4.87,41.96,-1155.92,-2110.56,16239.12,-770.32,1321.28,648.68
140,1.0,0.0,0.0,0.622,1.0,-9.82,31.17,-703.92,-2226.56,16143.12,-1306.32,1246.28,1365.68
160,1.0,0.0,0.934,0.472,0.0,-13.48,21.96,-1119.92,-3286.56,16755.12,-2010.32,2108.28,2537.68
180,1.0,0.0,0.645,0.987,0.0,-16.57,13.4,-359.92,-4246.56,15671.12,-2834.32,3242.28,3149.68
200,0.884,0.0,1.0,0.0,0.0,-18.37,4.97,-2271.92,-7102.56,15555.12,-6294.32,3545.28,3498.68
220,1.0,0.0,0.48,0.172,0.0,-19.46,-3.8,-3887.92,-8054.56,14147.12,-12305.32,4222.28,3515.68
239,0.494,0.0,1.0,0.0,1.0,-20.48,-13.16,-4787.92,-9246.56,13227.12,-20615.32,1719.28,2543.68
260,0.946,0.0,0.233,0.0,0.0,-21.34,-23.31,-6955.92,-9978.56,10995.12,-28216.32,-1322.72,2387.68
280,1.0,0.0,1.0,0.0,0.0,-22.73,-33.64,-6279.92,-12090.56,8999.12,-32211.32,-5491.72,3666.68
300,0.331,0.0,1.0,0.0,0.0,-24.24,-43.41,-5307.92,-13138.56,7683.12,-32211.32,-6329.72,5733.68
320,0.324,0.0,0.0,0.659,0.0,-25.69,-52.79,-4163.92,-11234.56,5999.12,-31983.32,-4343.72,7833.68
340,0.518,0.0,0.522,0.0,0.0,-26.56,-61.99,-4235.92,-11326.56,3639.12,-32202.32,-1320.72,8797.68
360,0.292,0.0,0.934,0.0,0.0,-27.05,-70.54,-4107.92,-11138.56,3807.12,-32211.32,1227.28,8397.68
380,0.637,0.0,1.0,0.528,0.0,-27.2,-78.71,-3987.92,-10814.56,2955.12,-32211.32,3544.28,6689.68
400,0.598,0.0,0.48,0.0,0.0,-26.99,-86.45,-4439.92,-12258.56,1891.12,-32211.32,4671.28,4166.68
420,0.661,0.0,0.893,0.0,0.0,-26.86,-93.7,-4271.92,-13430.56,1643.12,-32211.32,3965.28,2773.68
439,0.331,0.0,0.48,0.331,0.0,-27.13,-100.64,-2759.92,-12402.56,1187.12,-32211.32,2916.28,3532.68
460,0.849,0.0,0.0,0.378,0.0,-27.82,-107.5,-191.92,-11666.56,-720.88,-32211.32,2084.28,4726.68
480,1.0,0.0,1.0,0.481,0.0,-28.99,-114.02,1736.08,-10742.56,-628.88,-32211.32,381.28,4996.68
500,0.55,0.112,0.687,0.0,0.0,-30.84,-120.5,4048.08,-9950.56,-2472.88,-32211.32,-3333.72,4139.68
520,0.71,0.034,0.357,0.0,0.0,-33.36,-126.9,5828.08,-8618.56,-3768.88,-32211.32,-7406.72,3242.68
540,0.661,0.0,0.398,0.912,0.0,-36.86,-132.9,6328.08,-8458.56,-3340.88,-32211.32,-14645.72,3197.68
560,0.567,0.12,0.0,1.0,0.0,-41.45,-138.52,6784.08,-9794.56,-3988.88,-32211.32,-24060.72,3044.68
579,0.438,0.034,0.48,0.0,0.0,-46.98,-144.08,8220.08,-8110.56,-4784.88,-32211.32,-31166.72,1263.68
600,0.494,0.0,0.0,0.0,1.0,-52.71,-149.51,8904.08,-7114.56,-5484.88,-32211.32,-34149.72,-666.32
620,0.397,0.0,0.0,0.0,1.0,-57.97,-154.62,7644.08,-7618.56,-5888.88,-32211.32,-34149.72,-1525.32
640,0.491,0.0,0.357,0.069,0.0,-62.86,-159.25,6132.08,-6586.56,-6192.88,-29917.32,-34149.72,-944.32
660,0.348,0.0,1.0,0.022,0.0,-67.53,-163.53,5400.08,-3046.56,-6772.88,-25898.32,-34149.72,-1043.32
680,0.397,0.0,0.0,0.631,0.0,-71.91,-167.74,2536.08,-402.56,-5208.88,-25146.32,-34149.72,-2129.32
700,0.762,0.0,0.0,0.0,0.555,-75.71,-171.82,-2039.92,1305.44,-3692.88,-24753.32,-34149.72,-2568.32
720,0.331,0.105,0.0,0.275,1.0,-78.76,-175.19,-6623.92,1361.44,-1148.88,-23233.32,-34149.72,-2374.32
740,0.438,0.0,0.274,0.144,0.723,-81.07,-177.47,-10447.92,2837.44,2763.12,-18869.32,-34149.72,-2151.32
760,0.598,0.175,0.0,0.0,0.0,-80.8,-178.22,-14691.92,4429.44,6447.12,-13777.32,-34149.72,-3209.32
780,0.525,0.0,0.0,0.0,0.0,-78.71,-178.96,-16931.92,5689.44,6807.12,-8862.32,-34149.72,-4187.32
800,0.501,0.0,1.0,0.472,1.0,-75.15,-177.27,-20731.92,6293.44,8555.12,-3586.32,-34149.72,-4575.32
820,0.379,0.621,0.0,0.0,0.0,-71.83,-166.02,-23755.92,8625.44,10731.12,2868.68,-32939.72,-3998.32
840,0.473,0.0,1.0,0.0,0.0,-68.17,-153.39,-24995.92,11497.44,10839.12,6045.68,-26955.72,-4415.32
860,0.64,0.0,0.0,0.0,1.0,-63.55,-141.31,-26163.92,11505.44,10839.12,5210.68,-20580.72,-5203.32
880,0.508,0.0,0.0,0.0,0.0,-58.07,-130.36,-26887.92,11809.44,11359.12,1743.68,-13665.72,-5906.32
900,0.327,0.081,0.0,0.0,0.0,-51.59,-120.92,-27947.92,10469.44,11515.12,-2555.32,-7475.72,-5956.32
920,0.518,0.41,1.0,0.0,1.0,-44.33,-113.49,-28967.92,8529.44,11947.12,-4528.32,-2270.72,-5331.32
940,0.567,0.0,0.0,0.0,1.0,-36.38,-108.3,-28915.92,6665.44,10315.12,-3812.32,1806.28,-3784.32
960,0.449,0.0,1.0,0.0,0.0,-28.41,-106.51,-28551.92,5229.44,9251.12,-1373.32,4427.28,-1620.32
980,0.334,0.0,1.0,0.0,0.0,-20.22,-106.76,-27095.92,6237.44,8395.12,2203.68,7071.28,954.68
1000,0.334,0.0,1.0,0.0,0.0,-12.14,-92.09,-25883.92,8205.44,6835.12,4246.68,11114.28,2791.68
1020,0.445,0.0,1.0,0.051,0.0,-4.32,-76.89,-24659.92,7613.44,3899.12,2867.68,16304.28,3813.68
1038,0.835,0.0,1.0,0.0,0.0,3.51,-81.35,-23947.92,6849.44,1531.12,-299.32,22560.28,6427.68
1059,1.0,0.058,0.027,0.0,1.0,11.75,-67.69,-22947.92,8821.44,2083.12,-1882.32,28431.28,9307.68
1079,0.901,0.0,1.0,0.032,0.0,20.15,-72.83,-24251.92,6689.44,1607.12,-3200.32,31385.28,8451.68
1100,0.661,0.285,0.48,0.191,0.0,27.76,-77.34,-23807.92,4565.44,455.12,-4971.32,30968.28,7218.68
1120,0.884,0.426,0.0,0.0,0.0,33.28,-81.39,-21723.92,4641.44,-1428.88,-1680.32,23293.28,8849.68
1139,1.0,0.0,0.0,0.444,1.0,37.56,-66.01,-17999.92,8381.44,-2476.88,7665.68,22434.28,9259.68
1160,1.0,0.0,1.0,0.0,0.0,41.97,-50.41,-17575.92,8837.44,-4632.88,13468.68,26901.28,7211.68
1180,0.936,0.0,0.0,0.0,1.0,46.01,-35.24,-15663.92,7881.44,-7292.88,12830.68,29403.28,6038.68
1199,0.995,0.0,0.0,0.0,0.0,49.39,-39.3,-16691.92,6229.44,-7484.88,12769.68,25396.28,7491.68
1220,0.776,0.0,0.0,0.5,0.0,52.05,-24.36,-16227.92,7197.44,-6076.88,14145.68,22047.28,8644.68
1240,0.863,0.0,0.0,0.0,0.0,53.38,-10.3,-13203.92,7033.44,-10976.88,11796.68,18237.28,6034.68
1259,1.0,0.144,0.0,0.0,0.0,54.17,2.29,-9395.92,8865.44,-12456.88,7213.68,19059.28,3723.68
1280,0.776,0.0,0.274,0.0,0.0,54.83,14.18,-8239.92,7105.44,-15200.88,3988.68,19497.28,2789.68
1300,0.884,0.0,0.769,0.285,0.0,55.2,25.27,-8687.92,6977.44,-15436.88,1600.68,17710.28,3414.68
1320,0.786,0.0,0.233,0.0,0.0,54.65,16.92,-6963.92,6209.44,-17476.88,-593.32,12957.28,3507.68
1339,0.793,0.175,1.0,0.0,1.0,52.77,8.28,-3615.92,6921.44,-20196.88,-3720.32,5831.28,2649.68
1360,1.0,0.0,0.0,0.0,0.0,49.64,18.29,-1667.92,7817.44,-20976.88,-5548.32,-1978.72,1791.68
1379,1.0,0.0,0.0,0.0,0.0,45.41,9.31,-4783.92,6169.44,-19288.88,-6128.32,-11876.72,785.68
1400,0.783,0.018,0.0,0.0,0.0,40.16,19.32,-7647.92,7581.44,-17036.88,-4924.32,-21698.72,-1257.32
1420,0.898,0.0,0.0,0.828,0.0,34.41,28.83,-7575.92,9161.44,-16076.88,-4447.32,-26484.72,-3182.32
1439,1.0,0.128,1.0,0.0,0.0,28.87,37.94,-8111.92,9449.44,-13384.88,-4372.32,-26765.72,-4833.32
1460,1.0,0.0,0.0,0.0,0.0,24.06,46.57,-11787.92,9301.44,-9752.88,-5007.32,-26509.72,-6174.32
1480,0.912,0.0,0.027,0.0,1.0,19.96,54.5,-14275.92,9197.44,-7308.88,-7280.32,-25978.72,-8020.32
1499,0.738,0.0,1.0,0.0,0.0,16.33,61.82,-16487.92,8289.44,-5272.88,-10314.32,-27476.72,-8896.32
1520,0.797,0.183,0.522,0.0,0.0,13.31,69.08,-18971.92,7509.44,-2060.88,-9763.32,-29751.72,-7595.32
1540,0.55,0.0,0.192,0.0,0.0,11.05,75.98,-20347.92,8885.44,427.12,-6829.32,-29778.72,-7219.32
1560,0.654,0.0,0.439,0.116,1.0,9.72,82.66,-22435.92,9481.44,1579.12,-4245.32,-28000.72,-8131.32
1580,0.24,0.0,0.48,0.331,0.0,9.74,89.39,-23771.92,8749.44,3887.12,-1889.32,-23998.72,-8047.32
1600,0.654,0.0,1.0,0.0,0.387,11.02,96.72,-26187.92,7401.44,6303.12,681.68,-21007.72,-6514.32
1620,0.637,0.0,1.0,0.0,0.218,12.87,103.32,-27195.92,7745.44,7179.12,2883.68,-18254.72,-5234.32
1640,0.532,0.0,0.687,0.0,0.0,15.11,108.62,-27103.92,8389.44,7583.12,3854.68,-15334.72,-4483.32
1660,0.919,0.136,0.0,0.0,0.0,17.69,115.31,-27631.92,7585.44,6347.12,3479.68,-11781.72,-4043.32
1680,0.498,0.0,0.0,0.481,1.0,20.5,121.67,-27895.92,7625.44,5059.12,1954.68,-8029.72,-3640.32
1700,0.804,0.0,0.233,0.0,0.0,23.79,126.93,-27507.92,8477.44,4563.12,-393.32,-3140.72,-3201.32
1720,0.612,0.0,0.0,0.622,0.0,27.3,132.14,-26751.92,7445.44,2907.12,-4213.32,1416.28,-3349.32
1740,0.637,0.018,0.934,0.0,0.0,30.6,118.97,-26643.92,6337.44,1347.12,-7128.32,2833.28,-3209.32
1760,0.585,0.0,0.0,0.912,0.0,33.64,106.36,-26499.92,5969.44,723.12,-6809.32,2852.28,-1682.32
1779,0.498,0.0,0.439,0.0,0.0,36.35,94.22,-26131.92,6389.44,51.12,-5134.32,2350.28,26.68
1800,0.553,0.011,0.934,0.0,0.05,38.76,100.63,-25527.92,7109.44,-1080.88,-3276.32,2703.28,903.68
1820,0.598,0.0,0.151,0.0,1.0,41.0,106.91,-25071.92,7401.44,-1860.88,-1865.32,3393.28,1528.68
1840,0.501,0.0,1.0,0.313,0.0,43.2,113.1,-25331.92,7493.44,-1804.88,-638.32,3588.28,1929.68
1859,0.588,0.0,0.769,0.0,0.0,45.36,119.17,-26127.92,7665.44,-1476.88,731.68,3107.28,2277.68
1880,0.445,0.0,0.769,0.0,0.0,47.23,125.15,-25923.92,7865.44,-1540.88,2152.68,2071.28,2353.68
1900,0.327,0.0,0.0,0.0,0.0,48.8,130.96,-25639.92,8265.44,-1692.88,3529.68,1015.28,2332.68
1919,0.581,0.0,1.0,0.0,1.0,50.15,136.45,-24919.92,8993.44,-2244.88,4199.68,1181.28,2066.68
1940,0.501,0.465,0.48,0.0,0.0,51.49,141.47,-25047.92,9405.44,-2504.88,3265.68,1814.28,1529.68
1959,0.546,0.0,0.192,0.0,1.0,52.91,145.98,-25407.92,9077.44,-2372.88,767.68,2387.28,719.68
1979,0.602,0.0,0.48,0.0,0.0,54.24,150.12,-25631.92,8597.44,-1988.88,-1070.32,1747.28,223.68
1999,0.518,0.0,0.0,0.0,0.0,55.41,154.27,-25755.92,8005.44,-1796.88,-669.32,714.28,448.68
2019,0.515,0.441,0.687,0.0,0.0,56.27,158.39,-25175.92,8301.44,-2000.88,839.68,-223.72,829.68
2039,0.63,0.0,1.0,0.0,0.0,57.07,162.38,-25003.92,8757.44,-2048.88,2110.68,-98.72,1079.68
2059,0.668,0.0,0.439,0.0,0.0,57.95,166.08,-25079.92,8989.44,-1944.88,1858.68,633.28,936.68
2079,0.456,0.0,1.0,0.0,0.0,58.82,169.51,-25275.92,8717.44,-2044.88,676.68,824.28,508.68
2099,0.605,0.0,0.0,0.0,1.0,59.64,172.73,-25271.92,8541.44,-1852.88,193.68,695.28,439.68
2118,0.678,0.0,0.0,0.0,1.0,60.36,175.8,-25219.92,8537.44,-1976.88,153.68,503.28,502.68
2139,0.776,0.034,0.852,0.0,0.0,61.01,178.63,-24999.92,8677.44,-2140.88,-179.32,667.28,504.68
2159,0.491,0.0,1.0,0.0,0.0,61.67,181.27,-25179.92,8553.44,-2028.88,-622.32,760.28,442.68
2179,0.55,0.0,0.027,0.0,1.0,62.26,183.75,-25275.92,8653.44,-2088.88,-649.32,585.28,373.68
2199,0.748,0.003,0.0,0.0,0.0,62.71,186.16,-25015.92,8689.44,-2300.88,-266.32,316.28,405.68
2219,0.64,0.05,0.0,0.0,0.0,63.08,188.4,-24643.92,8941.44,-2604.88,-123.32,524.28,340.68
2239,0.484,0.0,0.0,0.0,1.0,63.49,190.44,-24971.92,8981.44,-2512.88,-559.32,759.28,281.68
2259,0.637,0.0,0.0,0.013,0.05,63.9,192.36,-25311.92,8733.44,-2360.88,-1010.32,619.28,249.68
2279,0.724,0.0,1.0,0.0,0.0,64.21,194.18,-25103.92,8593.44,-2168.88,-1000.32,87.28,156.68
2299,0.678,0.535,0.0,0.322,0.0,64.43,196.01,-25155.92,8673.44,-1956.88,-57.32,-558.72,300.68
2319,0.491,0.0,0.192,0.0,0.0,64.56,197.85,-24891.92,8845.44,-2120.88,987.68,-562.72,388.68
2339,0.501,0.426,0.687,0.004,0.0,64.68,199.6,-24939.92,8881.44,-2352.88,1193.68,-367.72,355.68
2359,0.661,0.144,1.0,0.0,0.891,64.87,201.1,-24891.92,9073.44,-2308.88,614.68,304.28,200.68
2379,0.56,0.0,0.0,0.0,1.0,65.17,202.46,-25275.92,8569.44,-2008.88,-516.32,582.28,116.68
2399,0.63,0.0,0.027,0.004,0.0,65.3,203.72,-25107.92,8397.44,-2184.88,-846.32,-50.72,162.68
2419,0.445,0.0,1.0,0.0,0.0,65.33,204.93,-24911.92,8637.44,-2236.88,-166.32,-434.72,420.68
2439,0.581,0.0,1.0,0.079,0.0,65.37,206.09,-24919.92,8789.44,-2236.88,277.68,-161.72,472.68
2459,0.623,0.0,0.0,0.0,1.0,65.48,207.14,-24983.92,8813.44,-2236.88,205.68,312.28,338.68
2479,0.755,0.0,1.0,0.238,0.0,65.57,208.16,-25155.92,8533.44,-2332.88,67.68,303.28,302.68
2498,0.616,0.0,1.0,0.313,0.0,65.59,209.09,-25107.92,8625.44,-2248.88,199.68,-70.72,201.68
2519,0.588,0.183,0.0,0.069,0.0,65.53,209.96,-24907.92,8781.44,-2260.88,530.68,-374.72,312.68
2539,0.644,0.0,0.975,0.0,0.0,65.45,210.76,-24847.92,8857.44,-2464.88,658.68,-104.72,294.68
2559,0.616,0.543,0.0,0.0,1.0,65.43,211.42,-24963.92,8941.44,-2192.88,422.68,12.28,167.68
2579,0.87,0.0,0.0,0.453,0.0,65.37,212.04,-25051.92,8785.44,-2276.88,370.68,-108.72,207.68
2599,0.64,0.0,1.0,0.0,1.0,65.28,212.6,-24907.92,8797.44,-2324.88,362.68,-118.72,117.68
2619,0.647,0.0,0.0,0.0,1.0,65.15,213.08,-24887.92,8801.44,-2368.88,309.68,-225.72,84.68
2639,0.536,0.034,1.0,0.0,0.0,65.04,213.53,-24995.92,8841.44,-2248.88,518.68,-242.72,156.68
2659,0.525,0.0,0.357,0.0,0.0,64.95,213.93,-25007.92,8853.44,-2152.88,689.68,-80.72,174.68
2679,0.605,0.0,0.0,0.06,0.0,64.85,214.29,-24971.92,8789.44,-2164.88,687.68,-43.72,130.68
2699,0.449,0.081,1.0,0.416,0.218,64.72,214.58,-25007.92,8729.44,-2304.88,458.68,-102.72,45.68
2719,0.442,0.0,0.0,0.0,0.0,64.57,214.78,-24939.92,8733.44,-2228.88,192.68,-168.72,8.68
2739,0.592,0.292,0.0,0.0,0.0,64.4,214.96,-24871.92,8621.44,-2300.88,186.68,-207.72,129.68
2759,0.825,0.0,0.0,0.0,1.0,64.25,215.05,-24935.92,8745.44,-1952.88,185.68,-247.72,172.68
2779,0.637,0.0,1.0,0.0,1.0,64.06,215.1,-24799.92,8713.44,-2140.88,147.68,-283.72,186.68
2799,0.88,0.0,0.0,0.0,0.0,63.89,215.09,-24847.92,8757.44,-2152.88,17.68,-147.72,194.68
2819,0.511,0.0,0.0,0.0,0.0,63.75,215.02,-24927.92,8757.44,-1948.88,-83.32,-72.72,160.68
2838,0.623,0.0,0.0,0.275,0.0,63.6,214.89,-25183.92,8797.44,-1960.88,-118.32,-259.72,-58.32
2858,0.612,0.042,0.0,0.425,0.0,63.47,214.73,-25427.92,8945.44,-2012.88,33.68,-287.72,-247.32
2878,0.557,0.0,0.852,0.032,0.0,63.32,214.54,-25207.92,9057.44,-2132.88,245.68,-45.72,-182.32
2899,0.623,0.0,1.0,0.0,0.0,63.21,214.29,-25063.92,9053.44,-2136.88,63.68,437.28,-160.32
2919,0.602,0.0,0.0,0.0,1.0,63.09,213.92,-24963.92,9173.44,-2228.88,-439.32,562.28,-162.32
2939,0.557,0.0,0.0,0.0,0.0,62.97,213.52,-24947.92,9037.44,-2216.88,-714.32,601.28,76.68
2959,0.637,0.0,0.0,0.0,0.0,62.79,213.11,-24739.92,9049.44,-2268.88,-665.32,467.28,216.68
2979,0.487,0.0,1.0,0.0,0.0,62.55,212.71,-24387.92,8881.44,-2260.88,-743.32,354.28,402.68
