timestamp,flex_1,flex_2,flex_3,flex_4,flex_5,kalman_pitch,kalman_roll,acc_x,acc_y,acc_z,gyro_x,gyro_y,gyro_z
0,1.0,0.447,1.0,0.527,1.0,86.04,210.16,-2486.64,-1021.28,20468.0,-603.54,2173.2,-1368.64
19,1.0,1.0,1.0,0.24,1.0,51.09,142.62,-1890.64,-125.28,21488.0,1936.46,6245.2,-1295.64
39,1.0,0.573,0.0,0.225,0.0,32.29,105.43,-3802.64,1226.72,21932.0,1382.46,6776.2,-1375.64
59,1.0,1.0,0.0,0.21,1.0,20.18,80.55,-4146.64,822.72,21852.0,-2562.54,5098.2,-2937.64
79,1.0,0.824,1.0,0.353,0.0,11.44,62.48,-4094.64,610.72,21712.0,-5156.54,3531.2,-3685.64
99,1.0,1.0,0.745,0.006,0.0,4.92,47.93,-4142.64,-1177.28,21492.0,-5559.54,1897.2,-2741.64
119,1.0,0.0,0.157,0.127,1.0,-0.52,36.83,-3882.64,-749.28,21372.0,-4351.54,662.2,-2305.64
139,1.0,0.0,0.0,0.134,1.0,-4.78,27.98,-4358.64,-1277.28,21588.0,-2389.54,-76.8,-3198.64
159,1.0,0.593,1.0,0.0,0.0,-8.12,21.48,-6062.64,-353.28,23016.0,-952.54,-3139.8,-4803.64
179,0.787,0.454,1.0,0.27,0.0,-12.69,16.49,-5042.64,1906.72,20668.0,75.46,-9012.8,-6519.64
199,0.402,0.991,0.0,0.0,0.397,-17.86,11.03,-2738.64,-569.28,19796.0,-538.54,-13755.8,-6796.64
219,0.195,0.524,0.0,0.021,0.797,-22.87,6.1,-2018.64,162.72,19508.0,-2921.54,-14444.8,-8173.64
240,0.376,0.621,1.0,0.014,0.0,-27.13,0.91,-2586.64,-1381.28,19096.0,-4884.54,-14303.8,-7695.64
260,0.145,0.475,0.941,0.263,0.0,-31.25,-4.73,-1266.64,-2685.28,18136.0,-7993.54,-14558.8,-7793.64
280,0.047,0.0,1.0,0.459,0.0,-34.72,-10.38,-410.64,-3973.28,17980.0,-9734.54,-12291.8,-6210.64
300,0.091,0.698,0.0,0.0,0.0,-36.79,-15.96,-1438.64,-6025.28,19584.0,-12882.54,-7926.8,-3030.64
320,0.373,0.712,1.0,0.195,1.0,-37.98,-22.53,-1598.64,-9745.28,18960.0,-19116.54,-4972.8,2102.36
340,0.239,0.0,1.0,0.195,0.317,-38.58,-30.08,-438.64,-13533.28,17320.0,-25484.54,-1806.8,6898.36
360,0.0,0.126,0.857,0.564,0.0,-38.45,-37.96,-22.64,-17341.28,17552.0,-30368.54,1696.2,10488.36
380,0.228,0.308,1.0,1.0,0.0,-38.12,-45.54,-1214.64,-20045.28,16976.0,-30720.54,1450.2,15490.36
400,0.0,0.28,0.297,1.0,0.0,-37.98,-52.2,469.36,-21317.28,16548.0,-27072.54,1051.2,21666.36
420,0.142,0.831,0.0,0.572,1.0,-37.77,-57.95,-98.64,-21701.28,17488.0,-24290.54,1092.2,26984.36
440,0.305,0.084,1.0,0.557,1.0,-37.77,-63.67,721.36,-21637.28,16348.0,-25583.54,377.2,30520.36
460,0.174,0.0,0.0,0.255,1.0,-37.83,-69.49,1757.36,-22429.28,15484.0,-27887.54,341.2,32806.36
480,0.091,0.391,0.0,0.0,0.0,-37.83,-75.64,2581.36,-25453.28,13936.0,-30988.54,444.2,32806.36
500,0.376,0.0,0.0,0.617,0.0,-37.88,-81.6,1917.36,-25453.28,14036.0,-32294.54,-306.8,32806.36
520,0.242,0.252,1.0,0.979,1.0,-38.34,-87.37,2413.36,-25453.28,12564.0,-32294.54,-2952.8,32806.36
540,0.165,0.0,0.0,0.293,0.037,-39.02,-91.95,2653.36,-25453.28,12680.0,-26422.54,-4531.8,32806.36
560,0.127,0.0,0.0,0.127,1.0,-39.77,-95.36,2469.36,-23961.28,10248.0,-18453.54,-5056.8,32806.36
580,0.663,0.691,1.0,1.0,0.117,-39.99,-97.89,1449.36,-20953.28,9752.0,-13428.54,-1375.8,32806.36
600,0.453,0.705,1.0,1.0,0.957,-40.03,-99.3,-1994.64,-16777.28,11840.0,-8536.54,-1307.8,32806.36
620,0.473,0.14,0.857,0.436,0.0,-40.35,-98.68,-5034.64,-11445.28,12656.0,3485.46,-3843.8,32806.36
639,0.319,0.036,1.0,0.76,0.697,-40.68,-96.54,-3422.64,-6245.28,10500.0,16424.46,637.2,32806.36
659,0.05,0.0,1.0,0.315,0.0,-40.76,-93.3,-5022.64,70.72,10664.0,23446.46,7183.2,32806.36
680,0.565,0.091,0.0,1.0,0.757,-40.72,-91.75,-7366.64,3766.72,8916.0,21273.46,11711.2,32806.36
699,0.133,0.6,0.0,0.0,0.077,-41.14,-92.39,-6458.64,5674.72,8740.0,14350.46,14489.2,32806.36
719,0.091,0.0,0.493,1.0,0.0,-42.01,-77.54,-9826.64,7854.72,8492.0,12699.46,8850.2,32806.36
739,0.376,0.733,1.0,0.0,0.757,-41.93,-66.22,-7910.64,12082.72,7452.0,8151.46,7176.2,32806.36
759,0.26,0.238,1.0,0.76,1.0,-41.62,-54.96,-7298.64,12730.72,4564.0,3975.46,6137.2,32806.36
779,0.571,0.559,0.0,0.677,0.0,-41.4,-44.32,-8870.64,11590.72,4760.0,277.46,3877.2,24175.36
799,0.367,0.21,1.0,0.504,0.517,-41.45,-36.34,-7162.64,14394.72,9396.0,2090.46,4765.2,19075.36
819,0.305,0.789,0.0,0.0,0.017,-40.5,-27.52,-11406.64,14762.72,5740.0,314.46,988.2,9468.36
839,0.47,0.0,0.353,0.323,0.0,-38.44,-19.45,-15262.64,16294.72,4032.0,-4145.54,106.2,799.36
860,0.278,0.084,1.0,1.0,0.0,-35.93,-12.89,-18990.64,15646.72,6224.0,-9151.54,-4620.8,-4785.64
880,0.269,0.461,0.0,0.466,1.0,-32.79,-6.76,-23542.64,14254.72,7800.0,-8094.54,-8595.8,-6488.64
900,0.222,0.105,1.0,1.0,0.377,-29.54,-0.88,-26762.64,14390.72,8952.0,-4827.54,-10176.8,-7200.64
920,0.272,0.175,1.0,0.24,0.0,-26.25,5.01,-29302.64,13658.72,9004.0,-3501.54,-11690.8,-8229.64
940,0.0,0.482,1.0,0.376,1.0,-22.74,11.46,-29898.64,11926.72,8044.0,-3423.54,-11651.8,-8137.64
960,0.313,0.363,1.0,0.0,0.517,-18.74,17.13,-30966.64,10786.72,9308.0,-2536.54,-9744.8,-7080.64
980,0.186,0.0,0.0,0.368,1.0,-13.94,20.8,-32222.64,9322.72,10536.0,-4654.54,-5302.8,-6911.64
999,0.254,0.07,0.0,0.0,0.0,-8.64,23.32,-33086.64,8330.72,10836.0,-2232.54,-1767.8,-8952.64
1019,0.183,0.001,0.269,0.029,0.217,-3.46,24.27,-32590.64,7566.72,11104.0,1166.46,-1380.8,-8320.64
1039,0.254,0.043,0.0,0.0,0.337,1.33,25.08,-30582.64,7394.72,11152.0,3763.46,-2695.8,-6244.64
1059,0.343,0.97,1.0,0.127,0.0,5.83,26.26,-28834.64,7390.72,12032.0,7354.46,-2063.8,-4379.64
1079,0.343,0.07,0.185,0.0,0.0,10.08,28.68,-28274.64,8238.72,13312.0,11719.46,-722.8,-4210.64
1099,0.293,0.266,0.0,0.444,0.037,13.71,31.81,-27454.64,9710.72,14620.0,13171.46,-1127.8,-5423.64
1120,0.367,0.245,0.353,0.232,0.0,17.01,34.74,-26642.64,10002.72,15032.0,12794.46,-1312.8,-7241.64
1139,0.234,0.084,0.0,0.776,0.557,20.42,36.88,-25874.64,8374.72,14684.0,14038.46,-536.8,-8274.64
1159,0.346,0.552,0.185,1.0,0.317,23.95,39.19,-27374.64,7882.72,15640.0,18817.46,1607.2,-9486.64
1179,0.281,0.098,0.0,0.27,0.0,28.29,42.53,-29858.64,8454.72,14116.0,23526.46,5335.2,-11208.64
1199,0.328,0.328,0.689,0.708,0.0,33.14,43.81,-32398.64,6362.72,12772.0,23192.46,8031.2,-13064.64
1220,0.287,0.259,0.0,0.293,1.0,38.01,42.76,-34842.64,3434.72,12132.0,23531.46,10666.2,-12837.64
1240,0.322,0.503,0.0,0.459,0.0,43.03,40.9,-36622.64,1110.72,10724.0,26481.46,14464.2,-11483.64
1260,0.432,0.0,0.0,0.127,0.0,47.91,37.44,-35998.64,-3237.28,5664.0,26446.46,19444.2,-10380.64
1279,0.376,0.517,0.0,0.0,0.0,52.73,33.09,-35774.64,-6661.28,1980.0,22909.46,24023.2,-7945.64
1299,0.1,0.0,1.0,0.3,0.0,57.42,28.48,-35122.64,-9105.28,-820.0,21806.46,27245.2,-3525.64
1320,0.435,0.538,0.353,0.0,0.637,61.56,23.6,-33010.64,-12329.28,-5000.0,20815.46,28667.2,1047.36
1340,0.236,0.0,0.0,0.104,0.037,64.98,17.55,-27622.64,-14201.28,-11344.0,14622.46,30278.2,2276.36
1360,0.08,0.663,0.0,0.308,0.0,67.96,10.03,-24622.64,-15301.28,-16636.0,5096.46,31491.2,1828.36
1380,0.633,0.036,1.0,0.0,0.197,70.53,1.38,-22482.64,-14961.28,-19400.0,-3364.54,31491.2,3339.36
1400,0.47,0.063,0.773,0.278,0.797,72.02,-7.96,-18350.64,-14077.28,-20212.0,-9667.54,27561.2,4172.36
1420,0.287,0.126,0.605,0.232,0.0,71.36,-18.13,-15394.64,-13185.28,-19796.0,-17588.54,15356.2,4581.36
1440,0.376,0.51,0.0,1.0,0.057,68.63,-28.92,-13126.64,-11225.28,-16632.0,-24915.54,2524.2,5517.36
1460,0.414,0.196,0.269,0.0,1.0,63.84,-40.03,-12270.64,-9269.28,-11308.0,-31402.54,-11559.8,5375.36
1480,0.58,0.858,0.0,0.0,1.0,56.8,-50.39,-11914.64,-8021.28,-5072.0,-32294.54,-27866.8,4871.36
1500,0.251,0.043,0.0,0.127,0.0,49.06,-59.35,-11854.64,-5617.28,3412.0,-32294.54,-34043.8,5946.36
1520,0.228,0.844,0.0,0.444,0.157,41.49,-66.2,-11610.64,-3221.28,11044.0,-32294.54,-34043.8,8842.36
1540,0.056,0.238,1.0,0.813,1.0,33.35,-71.26,-7250.64,-2613.28,16572.0,-32294.54,-34043.8,13978.36
1560,0.239,0.0,0.185,0.73,0.857,24.0,-73.03,6425.36,-2369.28,17772.0,-13327.54,-34043.8,20471.36
1579,0.373,0.259,0.241,0.602,0.0,15.57,-68.39,8185.36,7882.72,29500.0,11297.46,-34043.8,27534.36
1599,0.047,0.747,1.0,0.481,0.557,9.45,-60.77,1389.36,23070.72,39980.0,23843.46,-29461.8,25814.36
1619,0.609,0.0,0.297,0.0,0.837,5.77,-52.59,-494.64,39278.72,30248.0,19305.46,-16173.8,17369.36
1639,0.639,0.0,1.0,0.512,0.0,4.43,-49.3,-3442.64,40081.72,28156.0,-13511.54,-2620.8,731.36
1660,0.716,0.872,0.017,0.662,0.397,5.74,-49.47,-20010.64,28082.72,29960.0,-31568.54,5473.2,-13237.64
1680,0.802,0.273,0.0,1.0,1.0,8.52,-47.88,-21554.64,24778.72,29560.0,-18541.54,14445.2,-21902.64
1700,0.935,1.0,0.381,1.0,0.0,13.31,-43.87,-34254.64,22998.72,25324.0,-3221.54,20043.2,-21708.64
1720,1.0,0.719,0.941,1.0,0.357,18.75,-38.51,-36430.64,20610.72,22248.0,6449.46,23080.2,-23066.64
1740,0.84,1.0,1.0,1.0,1.0,24.77,-33.43,-40858.64,16158.72,18268.0,6074.46,23786.2,-29109.64
1760,0.997,0.831,0.0,1.0,0.317,31.01,-34.26,-41214.64,4370.72,15000.0,-6427.54,22932.2,-32728.64
1780,1.0,1.0,0.045,1.0,1.0,36.5,-39.48,-39858.64,-3741.28,10156.0,-16454.54,23393.2,-29641.64
1800,1.0,0.97,1.0,1.0,0.877,41.51,-45.58,-36938.64,-7709.28,4316.0,-16464.54,25953.2,-24329.64
1820,1.0,1.0,0.0,1.0,1.0,45.95,-51.47,-35582.64,-7465.28,328.0,-12421.54,25123.2,-18424.64
1840,1.0,1.0,0.353,1.0,1.0,49.11,-56.59,-34254.64,-6453.28,-1228.0,-6620.54,18503.2,-8729.64
1860,1.0,0.266,0.0,1.0,0.977,50.6,-61.08,-28458.64,-2965.28,-2020.0,-14.54,10128.2,1365.36
1880,1.0,0.956,1.0,1.0,0.457,51.51,-64.92,-26090.64,438.72,-1168.0,6473.46,6548.2,8071.36
1899,1.0,0.858,1.0,1.0,0.0,52.33,-69.47,-25954.64,4798.72,-128.0,6906.46,4022.2,10178.36
1919,1.0,0.796,0.0,1.0,1.0,52.86,-74.74,-25510.64,6334.72,396.0,3747.46,1977.2,9314.36
1939,1.0,0.796,0.0,1.0,0.0,53.34,-79.72,-25750.64,5326.72,1392.0,2020.46,818.2,8382.36
1959,1.0,0.496,1.0,1.0,1.0,53.77,-84.74,-25246.64,7002.72,1888.0,4261.46,177.2,7258.36
1979,1.0,1.0,0.0,1.0,0.0,54.53,-71.68,-26530.64,7678.72,2472.0,5206.46,981.2,6189.36
1999,0.926,1.0,0.0,1.0,0.197,55.18,-77.32,-27362.64,7198.72,3188.0,2170.46,-868.8,4439.36
2019,0.864,0.914,0.0,1.0,0.017,55.76,-82.98,-28086.64,7226.72,4132.0,666.46,-2611.8,3193.36
2039,0.719,0.963,0.0,1.0,0.0,56.33,-87.97,-27630.64,6046.72,5248.0,-994.54,-3512.8,2260.36
2059,1.0,1.0,0.0,1.0,0.377,57.13,-92.4,-27606.64,5738.72,5748.0,-275.54,-2273.8,2208.36
2079,0.944,0.838,0.0,1.0,1.0,58.25,-96.73,-28234.64,5970.72,6008.0,-129.54,-542.8,1935.36
2099,0.695,0.489,0.353,0.874,0.0,59.3,-100.89,-28610.64,5566.72,5608.0,-1160.54,-241.8,1377.36
2119,0.852,0.803,0.0,1.0,1.0,60.2,-104.93,-28618.64,5654.72,5336.0,-681.54,-698.8,1153.36
2139,0.84,0.879,0.213,1.0,1.0,61.02,-109.33,-28126.64,6714.72,4832.0,298.46,-540.8,996.36
2159,1.0,0.81,1.0,1.0,0.417,62.03,-113.67,-28262.64,6398.72,5248.0,-1857.54,471.2,748.36
2180,1.0,0.21,0.577,1.0,0.0,63.18,-117.92,-29298.64,7034.72,5332.0,174.46,1205.2,-67.64
2199,0.879,1.0,0.0,1.0,0.0,64.1,-121.94,-29182.64,6734.72,5184.0,-577.54,136.2,-242.64
2219,0.858,0.956,0.185,1.0,0.337,64.95,-125.61,-29550.64,6590.72,5416.0,97.46,-443.8,154.36
2239,0.772,0.712,1.0,1.0,0.917,65.61,-128.98,-28630.64,6358.72,5348.0,241.46,-1015.8,639.36
2259,0.944,1.0,0.353,1.0,1.0,66.42,-132.47,-29062.64,6722.72,5516.0,-58.54,-276.8,651.36
2279,0.698,0.914,0.0,1.0,0.037,67.25,-135.45,-29306.64,6070.72,5820.0,-683.54,-144.8,312.36
2299,0.932,0.635,0.0,1.0,1.0,68.04,-138.54,-29702.64,6398.72,5776.0,-758.54,-351.8,-2.64
2319,1.0,0.928,0.605,1.0,0.057,68.61,-141.15,-29206.64,5854.72,5604.0,-425.54,-1131.8,90.36
2339,0.849,0.294,0.717,1.0,0.137,69.11,-144.16,-29198.64,6910.72,5468.0,576.46,-1568.8,564.36
2359,0.908,0.566,0.325,1.0,0.0,69.42,-146.58,-28110.64,5922.72,5176.0,72.46,-1762.8,698.36
2380,0.897,0.963,0.0,0.61,0.0,70.17,-149.22,-29202.64,6738.72,5940.0,564.46,-111.8,793.36
2399,0.855,0.0,1.0,1.0,0.0,70.96,-152.11,-29878.64,7230.72,5940.0,500.46,130.2,351.36
2419,0.982,1.0,1.0,0.828,1.0,71.38,-154.77,-28770.64,6706.72,5244.0,-870.54,-955.8,35.36
2439,0.479,1.0,0.0,0.723,0.417,71.94,-157.31,-29154.64,6890.72,5580.0,-220.54,-414.8,216.36
2460,1.0,1.0,1.0,1.0,0.0,72.5,-159.85,-29494.64,7074.72,5720.0,-185.54,-585.8,148.36
2479,0.923,0.705,0.0,1.0,1.0,72.88,-162.12,-28818.64,6718.72,5716.0,-681.54,-1324.8,-151.64
2499,0.793,1.0,1.0,0.859,1.0,73.39,-164.14,-29122.64,6690.72,6220.0,-193.54,-993.8,94.36
2519,0.802,0.844,0.577,1.0,0.737,73.84,-166.31,-28818.64,6942.72,6060.0,-469.54,-1014.8,116.36
2539,0.808,1.0,0.353,0.67,0.0,74.36,-168.18,-28718.64,6630.72,6292.0,-855.54,-645.8,47.36
2559,0.604,1.0,0.0,1.0,0.0,74.91,-170.15,-29202.64,6874.72,6108.0,-838.54,-164.8,-369.64
2579,0.991,1.0,1.0,1.0,1.0,75.4,-171.89,-28742.64,6578.72,5952.0,-1125.54,-60.8,-338.64
2600,0.997,0.761,0.241,1.0,0.0,75.99,-173.63,-29014.64,6902.72,6072.0,-293.54,492.2,-170.64
2619,1.0,0.482,0.0,1.0,0.857,76.46,-175.46,-29206.64,7170.72,6080.0,-122.54,-195.8,356.36
2639,0.686,0.824,0.0,1.0,0.0,76.75,-176.42,-28858.64,6254.72,6092.0,702.46,-1016.8,1606.36
2659,0.965,0.538,1.0,1.0,1.0,77.03,-177.46,-28806.64,6762.72,5976.0,2371.46,-988.8,2297.36
2680,0.76,0.663,0.913,0.859,0.0,77.32,-161.73,-29274.64,7766.72,5868.0,1623.46,-850.8,2139.36
2699,1.0,1.0,0.0,0.836,1.0,77.61,-163.67,-29130.64,6626.72,5948.0,-1623.54,-702.8,1002.36
2719,0.905,0.705,0.0,1.0,0.597,78.03,-165.83,-29258.64,6878.72,6204.0,-2725.54,-118.8,-170.64
2739,0.799,0.907,1.0,0.851,0.0,78.46,-167.65,-28942.64,6614.72,6284.0,-2469.54,194.2,-492.64
2759,0.849,0.851,0.045,1.0,1.0,78.95,-152.54,-29818.64,7634.72,6596.0,-1405.54,103.2,194.36
2779,0.846,1.0,0.0,0.723,1.0,79.2,-137.55,-29390.64,7346.72,6364.0,-848.54,-1068.8,1266.36
2799,0.9,0.0,0.0,1.0,0.0,79.38,-123.32,-29078.64,7818.72,6224.0,-527.54,-1164.8,941.36
2819,0.805,1.0,0.885,0.685,1.0,79.54,-126.64,-28490.64,7166.72,6044.0,-1322.54,-800.8,276.36
2839,0.817,1.0,0.0,1.0,0.757,79.94,-112.62,-29114.64,7546.72,6696.0,-902.54,-119.8,-368.64
2859,0.746,0.824,0.0,1.0,1.0,80.34,-98.91,-29230.64,7510.72,6732.0,-296.54,32.2,-297.64
2880,0.817,0.74,0.045,1.0,1.0,80.7,-85.44,-29322.64,7326.72,6716.0,-162.54,-175.8,-87.64
2899,0.574,0.9,0.0,1.0,0.0,80.96,-72.41,-29130.64,7318.72,6472.0,-260.54,-361.8,-250.64
2919,0.843,0.844,0.0,1.0,0.0,81.27,-59.83,-29238.64,7414.72,6620.0,-21.54,-81.8,-331.64
2939,0.556,1.0,0.0,1.0,0.797,81.56,-47.87,-29486.64,7670.72,6568.0,-23.54,-86.8,-387.64
2959,0.82,1.0,1.0,1.0,0.0,81.76,-53.35,-29070.64,7102.72,6528.0,-463.54,-518.8,-617.64
2979,0.962,0.789,0.801,1.0,0.0,81.94,-58.41,-29002.64,6818.72,6424.0,-140.54,-318.8,-964.64
