timestamp,flex_1,flex_2,flex_3,flex_4,flex_5,kalman_pitch,kalman_roll,acc_x,acc_y,acc_z,gyro_x,gyro_y,gyro_z
0,0.865,0.038,0.0,0.498,0.0,12.66,-8.59,-1221.84,221.76,18117.52,-705.84,1709.5,94.64
19,0.941,0.067,0.849,0.0,0.0,-4.58,-17.16,-1173.84,-286.24,19353.52,924.16,5017.5,1372.64
39,1.0,0.0,0.0,0.276,0.0,-11.53,-21.14,-1393.84,-1150.24,20573.52,3370.16,8774.5,1938.64
59,1.0,0.031,0.0,0.329,0.0,-14.29,-21.55,-2629.84,69.76,23345.52,4657.16,8168.5,1813.64
79,1.0,0.0,0.0,0.562,0.0,-16.23,-22.7,-2089.84,-1274.24,23169.52,2990.16,7273.5,1096.64
99,1.0,0.0,0.025,0.202,0.731,-17.28,-24.52,-349.84,-5034.24,25505.52,1886.16,8356.5,1279.64
119,1.0,0.104,0.569,0.699,1.0,-18.4,-24.35,3386.16,-4242.24,28333.52,8050.16,10079.5,6434.64
139,1.0,0.169,0.058,0.054,1.0,-17.09,-22.08,-981.84,-3710.24,30229.52,20551.16,17213.5,12756.64
159,0.835,0.038,0.0,0.34,0.0,-14.81,-18.22,-3577.84,-790.24,31617.52,27904.16,20658.5,16387.64
179,0.622,0.0,0.453,0.594,0.0,-12.22,-13.19,-4797.84,3129.76,33045.52,32382.16,22439.5,18172.64
199,0.581,0.0,0.585,0.181,0.0,-9.9,-8.21,-3117.84,5013.76,30793.52,33195.16,25611.5,18555.64
219,0.475,0.038,0.0,0.16,0.0,-6.44,-3.02,-5449.84,8085.76,31345.52,33195.16,31454.5,18157.64
239,0.424,0.14,0.0,0.35,0.378,-2.26,2.53,-10405.84,12173.76,31105.52,33195.16,31454.5,15267.64
259,0.47,0.52,0.0,0.329,0.0,1.95,8.72,-12305.84,17513.76,28805.52,33195.16,31454.5,8803.64
279,0.452,0.14,0.833,0.0,1.0,6.11,14.4,-13537.84,16309.76,26269.52,33195.16,31454.5,2369.64
299,0.546,0.111,0.0,0.0,0.0,10.65,19.79,-16893.84,18029.76,24541.52,30919.16,31454.5,-1580.36
319,0.586,0.235,0.0,0.34,0.0,15.16,25.55,-17457.84,19193.76,19937.52,30564.16,31454.5,-4518.36
339,0.477,0.045,0.14,0.731,0.0,19.59,30.57,-17161.84,17433.76,16321.52,25838.16,31454.5,-6845.36
359,0.617,0.0,0.289,0.361,0.0,23.97,35.43,-19049.84,17301.76,13949.52,23256.16,28594.5,-6210.36
379,0.622,0.016,0.0,0.297,0.0,28.07,40.41,-20313.84,17061.76,12361.52,23499.16,25586.5,-3948.36
399,0.604,0.184,0.0,0.805,1.0,31.11,44.93,-21009.84,16785.76,12169.52,22421.16,18663.5,-2436.36
419,0.607,0.023,0.0,0.943,0.802,33.02,49.35,-19841.84,16333.76,11197.52,22062.16,12823.5,-1230.36
439,0.607,0.0,0.008,0.001,0.0,34.39,53.83,-19009.84,16161.76,9669.52,20539.16,10285.5,-2477.36
459,0.526,0.235,0.041,0.668,0.0,35.33,56.68,-19605.84,15141.76,11769.52,17542.16,6750.5,-3762.36
479,0.538,0.264,0.0,0.0,0.0,35.95,58.85,-20421.84,14833.76,12773.52,16748.16,4011.5,-2296.36
499,0.609,0.0,0.0,0.0,0.0,36.08,61.16,-19285.84,15253.76,12429.52,17347.16,2740.5,-347.36
519,0.515,0.074,0.041,0.181,1.0,36.47,63.83,-19141.84,15377.76,10829.52,16833.16,3946.5,152.64
539,0.495,0.0,0.025,0.329,0.0,36.48,65.62,-18541.84,14949.76,11677.52,14512.16,2467.5,-521.36
559,0.518,0.169,0.0,0.414,0.0,35.71,66.74,-18181.84,14629.76,11949.52,11661.16,-2533.5,-1161.36
579,0.434,0.0,0.0,0.0,0.0,34.45,67.21,-17245.84,13221.76,11729.52,9524.16,-6363.5,-2026.36
599,0.391,0.0,0.0,0.361,0.095,32.42,67.11,-16317.84,13077.76,12433.52,7844.16,-9732.5,-1368.36
619,0.384,0.06,0.0,0.139,0.166,29.76,66.35,-15269.84,13101.76,13689.52,6009.16,-11381.5,-1298.36
639,0.333,0.0,0.0,0.107,1.0,27.2,65.14,-15989.84,13421.76,15569.52,5176.16,-11832.5,-1313.36
659,0.381,0.162,0.124,0.329,0.0,24.53,63.97,-15993.84,13933.76,15357.52,3983.16,-13510.5,-1066.36
679,0.303,0.082,0.074,0.075,0.0,21.59,62.59,-15277.84,13913.76,15309.52,2238.16,-14986.5,-1911.36
699,0.293,0.06,0.42,0.107,0.731,18.63,60.87,-15085.84,13925.76,15945.52,377.16,-15702.5,-3247.36
719,0.252,0.0,0.058,0.266,0.0,15.44,59.0,-14929.84,14709.76,17597.52,-347.84,-17194.5,-3978.36
739,0.331,0.257,0.239,0.0,0.802,12.43,56.82,-15225.84,14337.76,18213.52,-1929.84,-17679.5,-5303.36
759,0.186,0.0,0.0,0.096,0.0,9.85,54.5,-16085.84,14517.76,18749.52,-3288.84,-17024.5,-6112.36
779,0.28,0.0,0.008,0.816,0.0,7.87,52.62,-16693.84,15373.76,18877.52,-2107.84,-14705.5,-5400.36
799,0.26,0.045,0.041,0.435,0.0,6.72,50.89,-18133.84,15265.76,19145.52,-1178.84,-11739.5,-4165.36
819,0.113,0.0,0.552,0.022,1.0,6.06,49.43,-18917.84,15857.76,19021.52,-824.84,-9937.5,-1950.36
839,0.064,0.0,0.14,0.0,0.0,5.83,48.31,-19461.84,16289.76,18281.52,-185.84,-8299.5,-37.36
859,0.211,0.0,0.0,0.0,0.378,5.88,47.56,-19465.84,17393.76,18037.52,362.16,-6266.5,1192.64
879,0.219,0.0,0.041,0.086,0.0,6.33,47.09,-19745.84,18201.76,17725.52,757.16,-3801.5,1315.64
899,0.26,0.0,0.0,0.17,0.0,7.09,46.63,-20353.84,18733.76,17997.52,447.16,-2003.5,907.64
919,0.252,0.023,0.322,0.086,0.0,7.9,46.21,-20729.84,19301.76,17921.52,-72.84,-1747.5,736.64
939,0.252,0.038,0.058,0.0,0.0,8.65,46.01,-20233.84,19425.76,17169.52,218.16,-1727.5,969.64
959,0.254,0.0,0.008,0.382,0.0,9.35,45.85,-19885.84,19417.76,17349.52,635.16,-1427.5,984.64
979,0.254,0.0,0.0,0.0,1.0,10.15,45.58,-20157.84,19129.76,17705.52,409.16,-980.5,258.64
999,0.029,0.038,0.0,0.297,0.519,11.02,45.24,-20137.84,18777.76,17617.52,69.16,-430.5,-523.36
1019,0.216,0.0,0.14,0.033,1.0,11.94,44.9,-20017.84,18705.76,17465.52,-268.84,72.5,-976.36
1039,0.206,0.0,0.0,0.319,0.095,12.88,44.61,-19829.84,18601.76,17017.52,-436.84,540.5,-961.36
1059,0.272,0.016,0.322,0.17,0.0,13.84,44.4,-19657.84,18425.76,16737.52,-175.84,831.5,-301.36
1079,0.184,0.0,0.0,0.0,0.0,14.83,44.21,-19657.84,17841.76,16565.52,231.16,961.5,265.64
1099,0.277,0.038,0.0,0.0,0.0,15.76,44.15,-19269.84,17877.76,16289.52,607.16,1190.5,252.64
1119,0.227,0.0,0.074,0.848,0.0,16.62,44.01,-19161.84,17949.76,16125.52,-304.84,1104.5,-718.36
1139,0.219,0.0,0.058,0.012,0.0,17.44,43.84,-19221.84,17953.76,15709.52,-1131.84,810.5,-1674.36
1159,0.265,0.0,0.585,0.0,0.0,18.18,43.63,-18969.84,17461.76,15605.52,-1197.84,496.5,-1974.36
1179,0.272,0.038,0.47,0.149,0.0,18.88,43.33,-19101.84,17229.76,15933.52,-1199.84,245.5,-1987.36
1199,0.262,0.0,0.569,0.043,0.095,19.56,43.04,-19309.84,17261.76,16233.52,-997.84,256.5,-1547.36
1219,0.156,0.0,0.0,0.192,0.0,20.27,42.81,-19689.84,17221.76,16205.52,-717.84,122.5,-731.36
1239,0.285,0.0,0.074,0.149,0.095,20.87,42.71,-19325.84,17565.76,16037.52,-545.84,67.5,-271.36
1259,0.181,0.0,0.0,0.001,0.0,21.48,42.58,-19549.84,17573.76,16065.52,-795.84,102.5,-411.36
1279,0.272,0.0,0.0,0.266,0.166,22.09,42.42,-19989.84,17689.76,16565.52,-576.84,56.5,-64.36
1299,0.214,0.0,0.0,0.022,1.0,22.66,42.33,-19917.84,17633.76,16701.52,-40.84,15.5,340.64
1319,0.267,0.0,0.387,0.0,0.0,23.18,42.28,-20005.84,17921.76,16473.52,-355.84,-142.5,204.64
1339,0.252,0.0,0.0,0.033,0.0,23.62,42.27,-19881.84,18117.76,16421.52,-441.84,-418.5,119.64
1359,0.249,0.0,0.008,0.0,0.0,24.04,42.27,-19685.84,17777.76,16333.52,-195.84,-358.5,62.64
1379,0.234,0.0,0.091,0.255,0.0,24.48,42.22,-19593.84,17665.76,16485.52,-289.84,4.5,-277.36
1399,0.219,0.089,0.0,0.17,1.0,24.94,42.12,-19921.84,17753.76,16661.52,-515.84,37.5,-419.36
1419,0.275,0.0,0.025,0.17,1.0,25.36,42.07,-19829.84,17793.76,16561.52,-510.84,-15.5,-396.36
1439,0.224,0.0,0.0,0.096,0.0,25.72,41.96,-19725.84,17841.76,16533.52,-993.84,-230.5,-775.36
1459,0.308,0.0,0.157,0.192,0.0,26.0,41.75,-19477.84,17553.76,16485.52,-1583.84,-501.5,-1332.36
1479,0.298,0.0,0.305,0.223,0.59,26.29,41.68,-19605.84,17969.76,16569.52,-992.84,-232.5,-1524.36
1499,0.303,0.0,0.338,0.202,0.0,26.59,41.63,-19705.84,17661.76,16709.52,-503.84,-328.5,-1365.36
1519,0.348,0.0,0.322,0.0,0.0,26.85,41.62,-19841.84,17585.76,16873.52,4.16,-600.5,-511.36
1539,0.214,0.0,0.0,0.308,0.0,27.05,41.73,-19673.84,17705.76,16773.52,555.16,-737.5,316.64
1559,0.341,0.0,0.239,0.0,1.0,27.25,41.83,-19537.84,17445.76,16605.52,539.16,-701.5,607.64
1579,0.222,0.0,0.0,0.012,0.519,27.48,41.95,-19397.84,17453.76,16725.52,786.16,-274.5,534.64
1599,0.298,0.0,0.0,0.086,0.0,27.77,42.05,-19821.84,17653.76,16645.52,464.16,-157.5,90.64
1619,0.222,0.0,0.008,0.276,1.0,28.01,42.11,-19761.84,17653.76,16629.52,62.16,-377.5,-335.36
1639,0.267,0.0,0.0,0.0,0.0,28.24,42.09,-19793.84,17565.76,16565.52,-420.84,-494.5,-877.36
1659,0.232,0.0,0.041,0.022,0.661,28.46,42.06,-19901.84,17537.76,16853.52,-225.84,-426.5,-889.36
1679,0.219,0.0,0.0,0.0,0.237,28.69,42.03,-19897.84,17169.76,16905.52,194.16,-484.5,-228.36
1699,0.249,0.0,0.0,0.0,0.0,28.93,42.01,-19893.84,17029.76,16941.52,408.16,-382.5,241.64
1719,0.333,0.0,0.0,0.0,0.0,29.17,42.02,-19905.84,17269.76,16989.52,419.16,-234.5,342.64
1739,0.394,0.133,0.0,0.149,1.0,29.39,42.02,-19757.84,17401.76,16925.52,94.16,-50.5,-35.36
1759,0.219,0.0,0.0,0.17,0.0,29.67,41.98,-19861.84,17253.76,16833.52,-203.84,226.5,-382.36
1779,0.232,0.0,0.19,0.213,0.0,29.97,41.96,-20021.84,17249.76,16825.52,-10.84,262.5,-39.36
1799,0.262,0.0,0.0,0.266,0.0,30.23,42.08,-19957.84,17401.76,16641.52,519.16,127.5,615.64
1819,0.265,0.0,0.0,0.403,0.0,30.41,42.24,-19809.84,17501.76,16573.52,628.16,-139.5,825.64
1839,0.216,0.0,0.0,0.0,0.0,30.54,42.36,-19637.84,17621.76,16645.52,281.16,-109.5,185.64
1859,0.275,0.0,0.14,0.0,0.0,30.71,42.35,-19821.84,17673.76,16565.52,-627.84,-56.5,-922.36
1879,0.262,0.0,0.602,0.319,0.0,30.89,42.29,-19889.84,17389.76,16621.52,-772.84,-93.5,-1091.36
1899,0.262,0.0,0.519,0.0,0.0,31.04,42.29,-19957.84,17341.76,16737.52,-208.84,-221.5,-394.36
1919,0.257,0.0,0.0,0.435,1.0,31.14,42.36,-19697.84,17365.76,16781.52,335.16,-289.5,260.64
1939,0.252,0.0,0.173,0.551,0.0,31.26,42.44,-19713.84,17397.76,16629.52,92.16,-87.5,59.64
1959,0.206,0.0,0.0,0.34,0.0,31.39,42.46,-19701.84,17577.76,16685.52,-364.84,76.5,-483.36
1979,0.181,0.315,0.223,0.0,0.59,31.52,42.47,-19793.84,17577.76,16677.52,-439.84,64.5,-605.36
2000,0.232,0.045,0.0,0.139,0.0,31.64,42.51,-19861.84,17309.76,16753.52,29.16,-96.5,1.64
2019,0.275,0.0,0.074,0.0,0.519,31.72,42.62,-19653.84,17313.76,16749.52,518.16,-131.5,611.64
2039,0.181,0.0,0.256,0.0,0.0,31.79,42.74,-19685.84,17469.76,16737.52,422.16,-102.5,529.64
2059,0.113,0.0,0.602,0.0,1.0,31.87,42.79,-19805.84,17505.76,16713.52,-86.84,-145.5,-98.36
2079,0.219,0.177,0.0,0.139,1.0,31.94,42.78,-19941.84,17593.76,16905.52,-451.84,-204.5,-553.36
2099,0.239,0.0,0.75,0.0,0.0,32.0,42.81,-19961.84,17573.76,16885.52,-147.84,-251.5,-191.36
2119,0.184,0.0,0.124,0.477,1.0,32.07,42.87,-19797.84,17301.76,16937.52,378.16,-82.5,382.64
2139,0.3,0.0,0.618,0.0,0.0,32.17,42.98,-19845.84,17485.76,16937.52,474.16,150.5,513.64
2159,0.234,0.0,0.0,0.096,0.0,32.26,43.07,-19865.84,17549.76,16897.52,306.16,166.5,353.64
2179,0.341,0.0,0.0,0.244,0.0,32.35,43.16,-19965.84,17765.76,16857.52,20.16,127.5,-36.36
2199,0.29,0.191,0.0,0.065,0.0,32.41,43.25,-19893.84,17721.76,16697.52,-43.84,-11.5,-160.36
2219,0.262,0.147,0.569,0.16,0.0,32.46,43.32,-19889.84,17537.76,16881.52,130.16,-49.5,68.64
2239,0.206,0.001,0.0,0.446,0.0,32.48,43.39,-19665.84,17341.76,16833.52,302.16,-37.5,307.64
2259,0.254,0.0,0.0,0.0,1.0,32.51,43.48,-19593.84,17449.76,16877.52,374.16,122.5,331.64
2279,0.363,0.0,0.0,0.752,0.0,32.54,43.55,-19501.84,17405.76,16649.52,103.16,175.5,107.64
2299,0.222,0.0,0.552,0.53,0.731,32.58,43.61,-19645.84,17565.76,16537.52,-302.84,113.5,-250.36
2319,0.095,0.257,0.025,0.0,0.0,32.59,43.66,-19729.84,17501.76,16545.52,-306.84,-170.5,-158.36
2339,0.257,0.0,0.0,0.001,0.943,32.56,43.73,-19521.84,17377.76,16581.52,36.16,-270.5,87.64
2359,0.265,0.0,0.651,0.0,1.0,32.52,43.81,-19469.84,17349.76,16617.52,106.16,-225.5,100.64
2379,0.282,0.045,0.0,0.329,0.731,32.51,43.85,-19693.84,17417.76,16777.52,-3.84,-212.5,-21.36
2399,0.138,0.038,0.157,0.297,0.0,32.49,43.91,-19713.84,17513.76,16685.52,-55.84,-260.5,-99.36
2419,0.214,0.038,0.0,0.223,0.095,32.45,43.94,-19709.84,17521.76,16669.52,-307.84,-345.5,-266.36
2439,0.204,0.0,0.0,0.255,0.802,32.39,43.95,-19637.84,17513.76,16753.52,-400.84,-402.5,-297.36
2459,0.267,0.0,0.0,0.16,0.0,32.37,43.99,-19825.84,17457.76,16693.52,-164.84,-393.5,-110.36
2479,0.201,0.031,0.0,0.181,0.0,32.34,44.09,-19849.84,17545.76,16829.52,250.16,-398.5,361.64
2499,0.285,0.0,0.0,0.604,0.0,32.3,44.2,-19781.84,17609.76,16977.52,457.16,-260.5,570.64
2519,0.194,0.0,0.569,0.0,0.0,32.28,44.28,-19829.84,17629.76,16937.52,201.16,-223.5,364.64
2539,0.346,0.0,0.041,0.086,1.0,32.26,44.34,-19677.84,17549.76,16885.52,98.16,-94.5,25.64
2559,0.29,0.031,0.223,0.0,0.095,32.25,44.34,-19785.84,17477.76,16869.52,-233.84,-150.5,-364.36
2579,0.272,0.038,0.107,0.0,0.0,32.22,44.33,-19761.84,17401.76,16853.52,-320.84,-290.5,-390.36
2599,0.059,0.301,1.0,0.329,0.0,32.16,44.32,-19645.84,17377.76,16897.52,-210.84,-384.5,-153.36
2619,0.295,0.688,0.107,0.0,0.095,32.11,44.37,-19641.84,17433.76,16829.52,34.16,-337.5,131.64
2639,0.206,0.14,0.0,0.0,0.0,32.05,44.46,-19545.84,17365.76,16753.52,272.16,-379.5,380.64
2659,0.194,0.0,0.0,0.34,1.0,32.0,44.53,-19517.84,17297.76,16725.52,254.16,-295.5,341.64
2679,0.181,0.0,0.0,0.192,0.0,31.94,44.59,-19393.84,17325.76,16633.52,-12.84,-267.5,183.64
2699,0.247,0.22,0.107,0.467,1.0,31.9,44.66,-19569.84,17521.76,16697.52,-8.84,-190.5,81.64
2719,0.232,0.0,0.025,0.234,0.0,31.84,44.73,-19625.84,17609.76,16717.52,-23.84,-324.5,105.64
2739,0.27,0.264,0.0,0.0,1.0,31.76,44.81,-19681.84,17633.76,16801.52,30.16,-518.5,240.64
2759,0.222,0.0,0.008,0.393,0.0,31.63,44.87,-19509.84,17553.76,17053.52,271.16,-617.5,422.64
2779,0.224,0.0,0.041,0.467,0.0,31.53,44.93,-19689.84,17637.76,16981.52,144.16,-627.5,327.64
2799,0.282,0.0,0.552,0.022,0.0,31.43,44.97,-19473.84,17637.76,17017.52,-0.84,-384.5,114.64
2819,0.272,0.549,0.437,0.0,1.0,31.36,44.98,-19541.84,17565.76,16989.52,-131.84,-355.5,-14.36
2839,0.247,0.0,0.041,0.086,1.0,31.31,45.02,-19737.84,17697.76,17005.52,-28.84,-335.5,2.64
2859,0.128,0.082,1.0,0.096,0.0,31.22,45.06,-19585.84,17649.76,17033.52,55.16,-440.5,76.64
2879,0.328,0.0,1.0,0.001,0.095,31.12,45.11,-19537.84,17701.76,17041.52,82.16,-494.5,44.64
2899,0.287,0.0,0.0,0.0,0.0,31.02,45.19,-19537.84,17721.76,16961.52,160.16,-498.5,102.64
2919,0.242,0.0,0.0,0.255,1.0,30.98,45.23,-19629.84,17521.76,16961.52,123.16,-351.5,47.64
2939,0.148,0.0,0.0,0.0,0.731,30.9,45.24,-19545.84,17497.76,17205.52,139.16,-410.5,176.64
2959,0.219,0.023,0.0,0.0,1.0,30.83,45.29,-19345.84,17513.76,17077.52,306.16,-219.5,212.64
2979,0.3,0.0,0.734,0.033,0.0,30.78,45.31,-19453.84,17525.76,17141.52,184.16,-129.5,18.64
