timestamp,flex_1,flex_2,flex_3,flex_4,flex_5,kalman_pitch,kalman_roll,acc_x,acc_y,acc_z,gyro_x,gyro_y,gyro_z
0,1.0,0.527,1.0,0.0,0.44,52.31,34.6,3517.2,-4713.68,17683.04,-746.98,1475.1,305.74
19,0.562,0.535,1.0,0.0,1.0,38.07,19.18,3437.2,-5121.68,17635.04,-920.98,1774.1,-40.26
38,0.124,0.527,1.0,0.0,1.0,31.17,11.66,3261.2,-4901.68,17687.04,-620.98,1859.1,-274.26
58,0.416,0.485,1.0,0.0,1.0,27.02,7.02,3181.2,-4961.68,17683.04,-557.98,1459.1,-448.26
78,0.562,0.501,1.0,0.0,0.44,23.94,4.29,3533.2,-4269.68,17851.04,-520.98,923.1,-111.26
99,1.0,0.535,1.0,0.0,1.0,21.56,1.7,4029.2,-5169.68,17775.04,-1164.98,2005.1,620.74
118,0.0,0.476,1.0,0.0,0.05,20.13,-1.04,3525.2,-6857.68,18643.04,-1487.98,3823.1,250.74
138,0.416,0.359,1.0,0.0,0.273,19.25,-2.6,4037.2,-5421.68,18463.04,-731.98,6846.1,204.74
158,1.0,0.821,1.0,0.0,0.384,19.43,-3.89,3433.2,-6501.68,19763.04,1547.02,12080.1,328.74
179,0.708,0.544,1.0,0.0,1.0,20.81,-5.03,1261.2,-8209.68,20463.04,4362.02,16231.1,576.74
199,0.708,0.552,1.0,0.0,1.0,22.68,-5.41,-782.8,-8193.68,21087.04,8192.02,17078.1,2473.74
218,0.708,0.443,1.0,0.0,0.496,24.48,-5.04,-1042.8,-7689.68,21291.04,11912.02,17320.1,5629.74
238,1.0,0.552,1.0,0.0,0.607,26.87,-4.16,-2438.8,-6145.68,20163.04,13225.02,19476.1,6814.74
258,0.708,0.527,1.0,0.0,1.0,29.84,-2.96,-7570.8,-4881.68,20879.04,13551.02,18899.1,7344.74
279,0.27,0.501,1.0,0.0,0.106,32.48,-1.24,-5566.8,-2157.68,20367.04,13378.02,19979.1,8725.74
299,1.0,0.493,1.0,0.0,0.44,35.69,0.45,-6962.8,-885.68,17243.04,11468.02,21241.1,9515.74
319,1.0,0.476,1.0,0.0,1.0,38.64,1.59,-6418.8,-1857.68,16835.04,10322.02,21263.1,9399.74
339,1.0,0.459,1.0,0.0,0.273,41.73,3.82,-5490.8,922.32,15291.04,12807.02,23610.1,10075.74
358,0.562,0.417,1.0,0.07,0.273,45.04,6.33,-7746.8,2330.32,15147.04,13159.02,24546.1,11447.74
378,1.0,0.493,1.0,0.077,1.0,48.3,8.94,-6986.8,3346.32,12791.04,11334.02,24735.1,11674.74
398,0.0,0.527,1.0,0.226,1.0,51.69,11.13,-6918.8,1986.32,11607.04,11125.02,25346.1,10762.74
418,0.854,0.535,1.0,0.206,1.0,55.01,13.91,-7206.8,3102.32,10039.04,11882.02,25043.1,11467.74
437,0.416,0.535,1.0,0.225,1.0,58.54,17.34,-7626.8,3470.32,8035.04,13459.02,26002.1,13182.74
459,1.0,0.132,1.0,0.137,0.552,61.77,21.39,-7606.8,4606.32,6887.04,14469.02,25610.1,13675.74
479,1.0,0.434,0.0,0.235,1.0,64.63,25.85,-6562.8,5766.32,5323.04,13644.02,25588.1,13369.74
498,0.708,0.434,1.0,0.231,0.217,67.4,30.42,-5482.8,5430.32,3399.04,11041.02,25997.1,11212.74
518,0.562,0.636,1.0,0.149,1.0,69.93,35.22,-5570.8,5886.32,1611.04,9000.02,25903.1,9446.74
538,0.27,0.207,0.0,0.16,1.0,72.3,40.6,-5554.8,4654.32,-256.96,8440.02,24690.1,9570.74
558,0.416,0.174,1.0,0.212,1.0,73.78,46.46,-4758.8,6026.32,-2248.96,9745.02,22972.1,10040.74
578,0.0,0.064,1.0,0.175,1.0,74.5,52.36,-3594.8,6838.32,-3676.96,9843.02,21433.1,8761.74
599,1.0,0.064,1.0,0.193,1.0,74.73,57.96,-3654.8,7954.32,-5180.96,8330.02,20204.1,7616.74
618,0.562,0.039,1.0,0.163,1.0,74.51,63.21,-3710.8,8554.32,-6024.96,6951.02,18234.1,5514.74
638,1.0,0.0,1.0,0.157,0.0,74.02,68.1,-4042.8,7750.32,-6216.96,4975.02,15809.1,3250.74
658,0.562,0.014,1.0,0.186,0.273,73.02,72.62,-4634.8,8446.32,-6608.96,4014.02,12380.1,2395.74
678,0.562,0.0,1.0,0.159,0.44,71.39,76.87,-3534.8,8102.32,-6860.96,2861.02,9003.1,837.74
698,1.0,0.031,1.0,0.14,0.44,69.32,80.87,-2654.8,7766.32,-7296.96,1406.02,6615.1,-1178.26
719,0.708,0.0,1.0,0.184,1.0,67.05,84.62,-2978.8,7410.32,-6956.96,770.02,3911.1,-2765.26
738,0.708,0.0,1.0,0.177,1.0,64.41,88.11,-3498.8,7886.32,-6976.96,653.02,450.1,-2594.26
758,0.27,0.005,0.0,0.133,1.0,61.31,91.6,-2806.8,7634.32,-7284.96,968.02,-2767.9,-1821.26
778,0.124,0.0,1.0,0.147,1.0,58.15,95.05,-2766.8,7306.32,-6716.96,2072.02,-4608.9,-1876.26
799,1.0,0.0,1.0,0.134,1.0,54.9,98.09,-2370.8,7610.32,-5404.96,2537.02,-6363.9,-2701.26
818,0.124,0.0,1.0,0.146,1.0,51.6,100.64,-2590.8,7654.32,-4240.96,1929.02,-8660.9,-4033.26
838,0.708,0.0,1.0,0.147,1.0,48.48,102.49,-2810.8,7310.32,-2856.96,88.02,-9842.9,-6126.26
859,0.708,0.031,1.0,0.16,1.0,45.57,103.86,-2286.8,6062.32,-1648.96,-1268.98,-10775.9,-7129.26
878,1.0,0.0,1.0,0.136,1.0,43.02,105.0,-2554.8,5286.32,-796.96,-953.98,-11102.9,-6699.26
897,0.854,0.0,1.0,0.142,1.0,40.64,105.78,-2998.8,5078.32,539.04,542.02,-12342.9,-5031.26
918,0.854,0.0,1.0,0.147,0.44,38.23,105.76,-3918.8,5094.32,2479.04,1176.02,-14703.9,-4229.26
939,0.854,0.0,1.0,0.118,1.0,35.69,105.21,-3530.8,4378.32,3407.04,983.02,-17199.9,-4227.26
958,1.0,0.0,1.0,0.155,1.0,33.3,104.19,-2994.8,4478.32,4535.04,968.02,-16083.9,-4031.26
978,0.708,0.0,1.0,0.193,1.0,31.23,102.66,-3886.8,4358.32,5927.04,1249.02,-15210.9,-3169.26
998,0.562,0.0,1.0,0.196,1.0,29.33,100.62,-4966.8,3878.32,7619.04,2041.02,-15295.9,-1795.26
1018,1.0,0.0,0.0,0.159,0.384,27.82,98.84,-5246.8,3842.32,7351.04,2960.02,-14049.9,-1107.26
1038,1.0,0.0,1.0,0.096,1.0,26.42,96.83,-6418.8,5074.32,8139.04,628.02,-13477.9,-2029.26
1058,0.416,0.0,0.0,0.067,0.329,25.17,94.29,-5646.8,4326.32,8727.04,-1300.98,-12654.9,-2424.26
1079,0.416,0.0,1.0,0.047,1.0,24.42,91.96,-4878.8,3614.32,8183.04,-148.98,-10212.9,-1698.26
1099,0.27,0.0,1.0,0.03,1.0,23.93,89.86,-5650.8,4034.32,9151.04,1733.02,-8464.9,-513.26
1118,0.708,0.0,1.0,0.044,1.0,23.73,88.2,-5626.8,4926.32,8379.04,1722.02,-6757.9,-851.26
1138,0.0,0.0,1.0,0.09,1.0,24.08,86.53,-7182.8,5294.32,7475.04,-952.98,-4778.9,-2130.26
1158,0.27,0.123,1.0,0.027,1.0,24.52,84.53,-7802.8,4706.32,7623.04,-2482.98,-5200.9,-1960.26
1179,0.416,0.0,1.0,0.033,1.0,24.91,83.04,-6966.8,4470.32,6635.04,-1122.98,-5856.9,-475.26
1198,1.0,0.0,1.0,0.032,1.0,25.53,81.79,-6498.8,4302.32,6479.04,113.02,-4319.9,126.74
1219,1.0,0.0,1.0,0.0,1.0,26.25,80.44,-6638.8,4714.32,7291.04,162.02,-2742.9,109.74
1238,1.0,0.0,1.0,0.041,1.0,27.27,79.18,-6606.8,4682.32,7143.04,239.02,-710.9,185.74
1258,0.562,0.014,1.0,0.04,1.0,28.48,78.19,-7874.8,5134.32,6803.04,462.02,46.1,893.74
1278,1.0,0.0,1.0,0.06,1.0,29.59,77.53,-7446.8,5258.32,6031.04,735.02,-345.9,1275.74
1299,0.708,0.0,1.0,0.052,1.0,30.71,77.16,-7246.8,5710.32,5303.04,477.02,182.1,765.74
1319,0.416,0.0,1.0,0.063,0.0,31.85,76.77,-7274.8,5694.32,5263.04,145.02,438.1,416.74
1338,1.0,0.0,1.0,0.088,1.0,33.01,76.52,-7190.8,5498.32,4719.04,35.02,528.1,256.74
1358,1.0,0.0,0.0,0.099,1.0,34.16,76.35,-7542.8,5846.32,4899.04,552.02,909.1,81.74
1378,0.0,0.0,1.0,0.113,1.0,35.23,75.95,-7690.8,5450.32,5067.04,-261.98,246.1,-343.26
1398,0.27,0.0,1.0,0.149,0.329,36.25,75.5,-7626.8,5202.32,5019.04,-573.98,-196.9,-692.26
1418,0.708,0.0,1.0,0.162,0.0,37.24,74.95,-6926.8,4830.32,5091.04,-790.98,32.1,-338.26
1438,0.562,0.0,1.0,0.055,1.0,38.36,74.61,-7298.8,4642.32,5071.04,605.02,654.1,526.74
1458,1.0,0.0,1.0,0.096,1.0,39.44,74.47,-7242.8,5170.32,5067.04,1373.02,1230.1,1199.74
1478,0.854,0.0,1.0,0.061,1.0,40.46,74.33,-7414.8,5338.32,5259.04,1648.02,1275.1,1224.74
1497,1.0,0.0,1.0,0.062,1.0,41.38,74.26,-7218.8,5598.32,4767.04,817.02,1039.1,562.74
1518,0.708,0.0,1.0,0.048,1.0,42.3,74.07,-7146.8,5258.32,4523.04,-374.98,837.1,-221.26
1538,1.0,0.174,1.0,0.057,0.607,43.12,73.92,-7018.8,5146.32,4275.04,-654.98,304.1,-346.26
1559,0.708,0.0,1.0,0.055,0.0,43.94,73.96,-6302.8,4890.32,3959.04,-39.98,584.1,-196.26
1578,1.0,0.0,1.0,0.061,0.273,44.77,73.96,-6890.8,5078.32,4331.04,539.02,789.1,147.74
1599,0.27,0.148,1.0,0.055,1.0,45.49,74.07,-6786.8,5182.32,4151.04,751.02,420.1,139.74
1618,0.708,0.0,1.0,0.044,1.0,46.12,74.08,-6858.8,5490.32,4179.04,-9.98,210.1,-481.26
1637,1.0,0.0,1.0,0.043,0.0,46.82,73.9,-7202.8,4818.32,4227.04,-691.98,-105.9,-762.26
1659,0.708,0.0,1.0,0.043,1.0,47.46,73.8,-7114.8,4830.32,4403.04,252.02,-188.9,-428.26
1678,1.0,0.0,1.0,0.046,1.0,48.02,73.63,-7058.8,5062.32,4603.04,-16.98,-227.9,-132.26
1699,0.562,0.0,1.0,0.037,1.0,48.62,73.48,-7286.8,4906.32,4627.04,388.02,-147.9,239.74
1718,0.562,0.0,1.0,0.034,0.0,49.08,73.29,-7290.8,5286.32,4735.04,-57.98,-487.9,106.74
1738,0.708,0.0,0.0,0.028,1.0,49.58,73.1,-6978.8,4918.32,4447.04,-477.98,-393.9,-118.26
1759,0.416,0.0,1.0,0.03,1.0,50.05,72.81,-7542.8,5122.32,4827.04,-535.98,-521.9,52.74
1779,0.124,0.031,1.0,0.06,1.0,50.51,72.55,-7402.8,4970.32,4867.04,-124.98,-539.9,290.74
1798,0.562,0.0,1.0,0.028,0.0,50.89,72.34,-7490.8,5474.32,4959.04,-114.98,-503.9,329.74
1819,1.0,0.0,1.0,0.033,1.0,51.27,72.09,-7250.8,5154.32,4907.04,-247.98,-580.9,338.74
1837,0.416,0.165,1.0,0.032,1.0,51.66,71.91,-7218.8,5426.32,4907.04,-45.98,-102.9,251.74
1859,0.27,0.0,0.621,0.032,1.0,52.04,71.69,-7558.8,5446.32,5115.04,2.02,-182.9,336.74
1879,0.708,0.115,1.0,0.016,1.0,52.35,71.51,-7534.8,5594.32,5027.04,-27.98,-484.9,298.74
1897,0.562,0.0,1.0,0.028,1.0,52.71,71.32,-7130.8,5350.32,4879.04,-333.98,-108.9,-33.26
1919,0.854,0.241,1.0,0.029,1.0,53.08,71.1,-7358.8,5502.32,5011.04,-389.98,126.1,-285.26
1938,1.0,0.0,0.0,0.011,1.0,53.49,70.87,-7346.8,5178.32,4843.04,-575.98,108.1,-315.26
1957,0.854,0.0,1.0,0.028,0.106,53.92,70.61,-7354.8,4922.32,4927.04,-495.98,122.1,-229.26
1978,0.416,0.0,1.0,0.023,1.0,54.27,70.34,-7490.8,4910.32,5047.04,-261.98,-344.9,98.74
1998,0.708,0.0,1.0,0.025,0.0,54.58,70.12,-6826.8,4810.32,4967.04,-172.98,-216.9,341.74
2018,1.0,0.0,1.0,0.016,0.44,54.97,69.88,-6890.8,4726.32,4927.04,-326.98,220.1,258.74
2038,0.854,0.0,1.0,0.018,1.0,55.32,69.73,-6946.8,5078.32,4799.04,-393.98,371.1,205.74
2059,0.416,0.0,1.0,0.019,0.273,55.67,69.61,-7106.8,5062.32,4727.04,-393.98,283.1,198.74
2078,0.27,0.0,1.0,0.018,0.0,55.97,69.51,-7030.8,5186.32,4679.04,-525.98,195.1,78.74
2098,0.416,0.0,0.0,0.034,1.0,56.23,69.38,-7130.8,5190.32,4707.04,-648.98,-7.9,-4.26
2118,0.562,0.0,1.0,0.016,0.44,56.46,69.2,-6834.8,4962.32,4799.04,-700.98,-202.9,67.74
2138,0.124,0.0,1.0,0.026,1.0,56.65,69.08,-6902.8,5174.32,4819.04,-481.98,-200.9,271.74
2158,0.708,0.0,1.0,0.018,0.0,56.81,68.94,-7162.8,5190.32,4875.04,-534.98,-459.9,401.74
2178,0.124,0.0,1.0,0.024,1.0,56.92,68.85,-6974.8,5322.32,4871.04,-313.98,-555.9,487.74
2199,0.562,0.0,1.0,0.018,0.0,57.0,68.77,-6954.8,5514.32,4975.04,-253.98,-493.9,234.74
2218,0.0,0.0,0.718,0.022,1.0,57.09,68.66,-6834.8,5526.32,4955.04,-508.98,-287.9,-123.26
2237,0.27,0.0,1.0,0.015,1.0,57.21,68.53,-6990.8,5534.32,4907.04,-847.98,-175.9,-309.26
2258,0.562,0.0,1.0,0.023,1.0,57.34,68.39,-6930.8,5258.32,5015.04,-494.98,-287.9,-173.26
2278,1.0,0.0,1.0,0.017,0.44,57.43,68.27,-7014.8,5418.32,5095.04,-311.98,-370.9,11.74
2298,0.854,0.274,1.0,0.028,1.0,57.54,68.19,-7014.8,5314.32,5035.04,-184.98,-279.9,95.74
2318,0.562,0.0,1.0,0.014,1.0,57.64,68.07,-7030.8,5446.32,5243.04,-115.98,-147.9,27.74
2339,0.416,0.0,1.0,0.069,1.0,57.76,67.97,-7054.8,5410.32,5111.04,-263.98,-112.9,3.74
2357,0.854,0.0,1.0,0.028,1.0,57.91,67.91,-7022.8,5414.32,5135.04,22.02,157.1,17.74
2378,0.416,0.014,1.0,0.096,1.0,58.04,67.8,-7258.8,5402.32,5199.04,-163.98,25.1,-53.26
2398,0.854,0.0,1.0,0.029,0.552,58.18,67.72,-7146.8,5314.32,5091.04,-162.98,5.1,-182.26
2417,1.0,0.0,1.0,0.05,1.0,58.31,67.66,-7038.8,5226.32,5039.04,-124.98,-5.9,-179.26
2438,0.124,0.0,1.0,0.035,1.0,58.45,67.58,-7114.8,5226.32,5007.04,-303.98,15.1,-195.26
2458,0.708,0.0,1.0,0.027,0.0,58.61,67.48,-7286.8,5074.32,5031.04,-276.98,-37.9,-228.26
2478,0.416,0.0,1.0,0.026,1.0,58.71,67.37,-7342.8,5142.32,5259.04,32.02,-292.9,30.74
2498,0.416,0.0,1.0,0.049,1.0,58.77,67.25,-7154.8,5106.32,5347.04,142.02,-386.9,172.74
2519,0.708,0.0,1.0,0.033,1.0,58.85,67.12,-7042.8,5066.32,5347.04,110.02,-226.9,108.74
2537,0.27,0.0,1.0,0.033,0.273,58.92,67.01,-7254.8,5350.32,5391.04,25.02,-120.9,-67.26
2559,0.27,0.014,1.0,0.029,1.0,59.0,66.83,-7202.8,5138.32,5523.04,-11.98,-61.9,-26.26
2578,0.854,0.0,1.0,0.077,1.0,59.11,66.75,-6886.8,5090.32,5435.04,508.02,253.1,-14.26
2598,0.27,0.0,0.0,0.041,1.0,59.31,66.63,-7226.8,5194.32,5427.04,116.02,783.1,-377.26
2618,0.562,0.0,1.0,0.035,1.0,59.52,66.5,-7426.8,5130.32,5315.04,-192.98,700.1,-507.26
2639,0.708,0.0,1.0,0.028,1.0,59.69,66.47,-7386.8,5086.32,5047.04,-73.98,334.1,-181.26
2659,1.0,0.0,1.0,0.029,1.0,59.8,66.5,-7050.8,4946.32,5039.04,412.02,89.1,124.74
2679,1.0,0.0,1.0,0.033,1.0,59.93,66.63,-7066.8,5238.32,4911.04,624.02,452.1,105.74
2697,0.562,0.0,1.0,0.095,1.0,60.06,66.72,-7210.8,5198.32,4915.04,394.02,439.1,-65.26
2718,0.124,0.0,1.0,0.056,1.0,60.14,66.77,-7226.8,5402.32,4775.04,-312.98,253.1,-335.26
2738,1.0,0.0,0.0,0.027,1.0,60.22,66.78,-7390.8,5158.32,4823.04,-264.98,-76.9,-165.26
2758,0.416,0.0,1.0,0.029,1.0,60.23,66.86,-7150.8,5206.32,4831.04,145.02,-288.9,64.74
2779,0.416,0.014,1.0,0.028,0.0,60.22,66.9,-7066.8,5226.32,5007.04,257.02,-223.9,-46.26
2798,1.0,0.0,1.0,0.026,0.0,60.26,66.94,-6886.8,5126.32,4963.04,247.02,53.1,-83.26
2819,0.416,0.148,1.0,0.03,1.0,60.32,66.86,-7446.8,5198.32,5159.04,-167.98,42.1,-126.26
2838,0.854,0.0,1.0,0.039,1.0,60.33,66.79,-7098.8,5026.32,5087.04,-159.98,-268.9,-62.26
2858,0.854,0.0,1.0,0.025,1.0,60.32,66.73,-7034.8,5170.32,5243.04,78.02,-130.9,120.74
2878,1.0,0.0,1.0,0.027,1.0,60.34,66.72,-7274.8,5242.32,5191.04,248.02,-37.9,68.74
2899,1.0,0.0,1.0,0.023,1.0,60.35,66.65,-7122.8,5158.32,5307.04,189.02,-39.9,-24.26
2918,0.562,0.022,1.0,0.017,1.0,60.38,66.56,-6926.8,5114.32,5191.04,-215.98,170.1,-219.26
2939,0.854,0.0,0.0,0.028,1.0,60.48,66.44,-7090.8,4966.32,5171.04,-356.98,375.1,-213.26
2959,0.854,0.0,1.0,0.027,1.0,60.57,66.41,-7198.8,4898.32,5079.04,127.02,279.1,156.74
2977,0.562,0.0,1.0,0.025,1.0,60.62,66.48,-7258.8,5258.32,5079.04,415.02,243.1,272.74
