timestamp,flex_1,flex_2,flex_3,flex_4,flex_5,kalman_pitch,kalman_roll,acc_x,acc_y,acc_z,gyro_x,gyro_y,gyro_z
0,1.0,0.335,1.0,0.294,0.282,0.08,15.67,2210.96,-2750.4,17868.8,-483.48,1644.4,-414.52
21,1.0,0.281,1.0,0.362,0.282,8.37,10.87,2090.96,-2806.4,17920.8,-287.48,1035.4,-391.52
41,1.0,0.281,1.0,0.271,0.282,11.67,8.81,2166.96,-2918.4,17904.8,377.52,450.4,-302.52
60,1.0,0.226,1.0,0.294,0.282,13.38,7.96,2202.96,-2606.4,17848.8,497.52,-116.6,-392.52
80,1.0,0.226,1.0,0.322,0.331,14.33,7.39,2278.96,-2570.4,17980.8,13.52,-289.6,-397.52
102,1.0,0.296,0.018,0.294,0.429,14.88,6.83,2226.96,-2694.4,18208.8,-551.48,-845.6,-655.52
121,1.0,0.265,1.0,0.305,0.282,15.06,6.5,2634.96,-2482.4,18092.8,-688.48,-904.6,-318.52
141,1.0,0.249,1.0,0.311,0.0,14.97,6.52,3150.96,-1766.4,18300.8,-881.48,-511.6,429.48
161,1.0,0.249,1.0,0.005,0.282,15.12,5.97,3034.96,-2722.4,18552.8,-1985.48,1113.4,1817.48
181,1.0,0.281,1.0,0.334,0.282,15.66,4.68,2814.96,-4474.4,18156.8,-2915.48,3167.4,1106.48
201,1.0,0.0,1.0,0.305,0.282,16.67,3.72,1010.96,-4202.4,19116.8,-2564.48,3802.4,-530.52
222,1.0,0.273,1.0,0.124,0.282,17.29,3.47,2294.96,-2918.4,17784.8,-1517.48,3536.4,-1217.52
241,1.0,0.257,1.0,0.328,0.527,18.21,3.45,1690.96,-3266.4,18832.8,970.52,5644.4,-592.52
261,1.0,0.343,1.0,0.141,0.38,19.37,3.58,434.96,-3662.4,18960.8,2858.52,5703.4,-513.52
281,1.0,0.296,1.0,0.322,0.331,20.07,3.92,210.96,-3158.4,19912.8,3478.52,3534.4,542.48
301,1.0,0.312,1.0,0.056,0.0,21.13,4.07,-605.04,-2902.4,19472.8,1747.52,4991.4,1129.48
320,1.0,0.343,1.0,0.277,0.0,22.2,3.5,-1493.04,-4182.4,20640.8,-1016.48,5192.4,2358.48
341,1.0,0.343,1.0,0.266,0.282,23.47,2.76,-3205.04,-5354.4,21308.8,-654.48,5560.4,4034.48
361,1.0,0.429,1.0,0.334,1.0,25.0,2.7,-3393.04,-3466.4,20232.8,820.52,7018.4,6132.48
380,1.0,0.39,1.0,0.322,0.38,26.84,2.99,-5489.04,-2210.4,20236.8,1237.52,7712.4,7425.48
401,1.0,0.429,1.0,0.396,0.429,28.09,3.48,-3653.04,-794.4,19620.8,328.52,6019.4,9673.48
420,1.0,0.429,0.092,0.458,0.0,29.34,3.97,-4349.04,-334.4,18168.8,-656.48,4824.4,12139.48
442,1.0,0.539,1.0,0.441,0.282,31.02,4.94,-6561.04,101.6,17504.8,1841.52,5720.4,14663.48
460,1.0,0.64,1.0,0.43,0.331,32.37,5.65,-4949.04,-2058.4,17820.8,4245.52,5540.4,15754.48
480,1.0,0.64,1.0,0.475,0.282,34.05,7.75,-4433.04,373.6,17084.8,9820.52,8734.4,15872.48
501,1.0,0.679,1.0,0.571,0.38,35.39,10.73,-2721.04,2621.6,16652.8,12903.52,9423.4,15940.48
521,1.0,0.695,1.0,0.662,0.282,36.89,14.0,-2681.04,3961.6,15512.8,13173.52,10909.4,15577.48
542,1.0,0.726,1.0,0.617,0.282,38.49,17.51,-3117.04,5205.6,13372.8,12019.52,10959.4,16561.48
562,1.0,0.914,1.0,1.0,0.527,40.06,20.98,-2957.04,6009.6,13388.8,11948.52,12141.4,14707.48
581,1.0,0.859,1.0,1.0,0.478,41.48,24.31,-2837.04,7125.6,12608.8,9999.52,12192.4,13261.48
600,1.0,1.0,1.0,1.0,0.478,42.65,27.25,-3489.04,6941.6,11484.8,7074.52,9709.4,12480.48
620,1.0,0.898,1.0,1.0,1.0,43.35,30.22,-2741.04,7637.6,9716.8,4768.52,7470.4,10536.48
641,1.0,0.93,1.0,1.0,0.0,43.81,33.23,-1657.04,8537.6,8228.8,2748.52,7644.4,8485.48
661,1.0,0.953,1.0,1.0,1.0,44.46,35.85,-1397.04,7649.6,7808.8,836.52,8710.4,6490.48
680,1.0,1.0,1.0,1.0,0.723,45.01,37.87,-2241.04,7425.6,8948.8,-223.48,7601.4,4116.48
701,1.0,0.953,1.0,1.0,0.87,45.08,39.4,-2041.04,7097.6,9512.8,-1677.48,4859.4,2338.48
721,1.0,1.0,1.0,1.0,0.968,44.92,40.89,-2029.04,6829.6,8924.8,-2311.48,2841.4,380.48
741,1.0,1.0,1.0,1.0,1.0,44.77,42.41,-2021.04,5657.6,8260.8,-1728.48,1480.4,56.48
760,1.0,1.0,1.0,1.0,0.821,44.27,43.96,-1577.04,4281.6,9352.8,3051.52,-988.6,777.48
781,1.0,1.0,0.0,1.0,1.0,42.99,46.44,-1013.04,6501.6,9628.8,7733.52,-3783.6,603.48
801,1.0,1.0,1.0,1.0,0.282,41.12,48.79,-209.04,7425.6,9612.8,6860.52,-6459.6,-2149.52
821,1.0,1.0,1.0,1.0,0.968,38.86,50.61,1534.96,6745.6,9444.8,4467.52,-7816.6,-4614.52
842,1.0,1.0,1.0,1.0,0.87,36.49,51.55,2426.96,5845.6,10680.8,2178.52,-7915.6,-6344.52
860,1.0,0.937,1.0,1.0,0.87,34.4,51.89,3542.96,4105.6,10948.8,1317.52,-5627.6,-7482.52
881,1.0,1.0,1.0,1.0,0.87,32.59,51.89,2266.96,3201.6,12404.8,2685.52,-6381.6,-8232.52
901,1.0,1.0,1.0,1.0,1.0,30.16,52.0,2550.96,3941.6,13424.8,3711.52,-10114.6,-8858.52
921,1.0,0.984,1.0,0.939,1.0,27.01,51.93,4562.96,3217.6,13508.8,3883.52,-12689.6,-8853.52
941,1.0,1.0,1.0,1.0,0.968,24.01,51.61,4330.96,2657.6,14172.8,3894.52,-13275.6,-9203.52
961,1.0,1.0,1.0,1.0,1.0,20.86,50.76,4810.96,1445.6,14780.8,2879.52,-14583.6,-9291.52
981,1.0,1.0,1.0,1.0,1.0,17.51,49.55,4822.96,-74.4,15556.8,3415.52,-17248.6,-8635.52
1000,1.0,1.0,1.0,1.0,1.0,13.72,48.6,5998.96,-302.4,15884.8,5623.52,-19515.6,-7476.52
1021,1.0,0.969,0.385,1.0,1.0,9.8,47.9,6382.96,-426.4,16920.8,7946.52,-21118.6,-6286.52
1042,1.0,0.969,1.0,1.0,0.674,5.56,47.67,7322.96,245.6,18756.8,10916.52,-23410.6,-4342.52
1061,1.0,0.672,1.0,1.0,0.968,1.25,48.1,9102.96,2961.6,18940.8,12039.52,-23148.6,-2589.52
1080,1.0,1.0,1.0,1.0,0.282,-2.15,48.25,9770.96,4441.6,19544.8,8994.52,-17774.6,-5330.52
1100,1.0,0.711,1.0,1.0,0.919,-4.27,46.96,8850.96,3809.6,19008.8,-320.48,-11457.6,-8792.52
1122,1.0,0.969,1.0,1.0,1.0,-4.75,44.5,5798.96,1677.6,18900.8,-6216.48,-5121.6,-11288.52
1142,1.0,1.0,1.0,1.0,0.478,-4.14,41.39,1958.96,-1230.4,19776.8,-7246.48,-2966.6,-7764.52
1161,1.0,1.0,1.0,1.0,0.772,-3.35,39.03,2714.96,-2014.4,19176.8,-2100.48,-942.6,-1584.52
1181,1.0,0.977,1.0,0.934,1.0,-2.05,37.81,2350.96,649.6,17792.8,779.52,1934.4,2053.48
1201,1.0,0.945,1.0,1.0,0.723,-1.1,37.48,2014.96,2457.6,18212.8,4315.52,-43.6,5166.48
1221,1.0,1.0,1.0,1.0,0.674,-0.87,38.52,5046.96,6281.6,15684.8,7263.52,-889.6,5795.48
1242,1.0,1.0,1.0,1.0,0.772,-0.41,39.34,4606.96,6805.6,14244.8,4179.52,-52.6,3274.48
1260,1.0,1.0,1.0,1.0,0.723,0.01,39.56,4242.96,5173.6,15256.8,3247.52,-771.6,2400.48
1281,1.0,0.977,1.0,1.0,1.0,0.53,39.93,4930.96,6329.6,14396.8,2129.52,974.4,1435.48
1302,1.0,0.945,1.0,1.0,0.968,1.68,39.49,2806.96,5821.6,14296.8,-2775.48,2359.4,-596.52
1320,1.0,0.953,1.0,0.741,1.0,2.93,38.29,1174.96,2877.6,15476.8,-3484.48,740.4,-514.52
1341,1.0,1.0,1.0,1.0,0.87,3.82,37.28,1438.96,1677.6,16736.8,18.52,-605.6,1835.48
1361,1.0,0.937,1.0,1.0,0.821,4.85,36.64,1038.96,1673.6,17444.8,2720.52,340.4,3567.48
1380,1.0,0.945,1.0,1.0,1.0,5.98,35.84,722.96,1257.6,18268.8,2382.52,1342.4,4861.48
1401,1.0,0.937,1.0,1.0,0.821,7.31,35.04,790.96,1261.6,17868.8,1980.52,2941.4,6150.48
1421,1.0,1.0,1.0,1.0,0.772,8.87,34.05,226.96,1105.6,17948.8,719.52,4264.4,7247.48
1441,1.0,0.93,1.0,1.0,0.772,10.52,33.05,234.96,1141.6,18232.8,370.52,5637.4,8052.48
1461,1.0,0.953,1.0,1.0,0.478,12.39,31.9,822.96,1633.6,17528.8,-1895.48,8038.4,8611.48
1481,1.0,1.0,1.0,1.0,1.0,14.5,30.31,438.96,649.6,17512.8,-3960.48,9793.4,9831.48
1501,1.0,0.93,1.0,0.962,1.0,16.54,28.93,586.96,81.6,17220.8,-2437.48,10003.4,11323.48
1521,1.0,0.953,1.0,0.996,0.919,18.38,27.84,1506.96,929.6,16780.8,-2192.48,10370.4,13074.48
1540,1.0,0.984,1.0,0.815,0.674,20.22,26.9,1698.96,1209.6,16420.8,-2160.48,11138.4,14244.48
1561,1.0,0.937,1.0,0.968,0.919,21.9,26.08,2378.96,1649.6,16376.8,-2274.48,11705.4,14805.48
1580,1.0,0.93,1.0,0.951,1.0,23.38,25.33,3166.96,2141.6,16280.8,-2758.48,12085.4,15751.48
1601,1.0,0.75,0.0,1.0,0.478,24.65,24.72,3526.96,2765.6,16308.8,-2915.48,11788.4,16393.48
1620,1.0,0.953,1.0,1.0,0.282,25.7,24.31,4322.96,3841.6,14832.8,-4160.48,11644.4,16357.48
1640,1.0,0.875,1.0,0.996,0.282,26.5,23.7,5622.96,3009.6,15448.8,-4259.48,12294.4,17569.48
1660,1.0,0.93,1.0,0.979,0.674,27.06,23.42,6190.96,3737.6,17292.8,-1874.48,12071.4,18254.48
1680,1.0,0.953,1.0,0.838,1.0,27.46,23.21,7506.96,4509.6,17232.8,-2440.48,13033.4,17940.48
1701,1.0,0.891,1.0,0.985,0.478,27.91,22.46,7814.96,3477.6,17536.8,-4988.48,14108.4,17588.48
1720,1.0,0.93,1.0,0.979,0.674,28.25,21.47,7710.96,2165.6,17952.8,-5148.48,13530.4,19057.48
1741,1.0,0.93,1.0,0.588,0.0,28.28,21.06,8170.96,3649.6,18600.8,-2882.48,12248.4,20048.48
1761,1.0,0.922,1.0,1.0,0.919,27.97,21.22,10342.96,6533.6,16648.8,-3287.48,12666.4,19345.48
1781,1.0,0.828,1.0,1.0,0.0,27.72,21.4,10414.96,8149.6,15676.8,-5414.48,13212.4,18796.48
1802,1.0,0.906,1.0,0.996,0.919,27.26,21.63,10986.96,8573.6,14592.8,-6411.48,12645.4,18216.48
1821,1.0,0.922,1.0,0.951,0.674,26.61,22.1,11674.96,8889.6,13688.8,-5847.48,12221.4,17031.48
1842,1.0,0.898,1.0,0.894,1.0,26.02,22.59,11682.96,8677.6,12964.8,-6290.48,12892.4,15938.48
1861,1.0,0.93,1.0,0.973,0.674,25.44,23.27,11286.96,7605.6,12816.8,-4238.48,12742.4,14692.48
1882,1.0,0.93,1.0,0.979,1.0,24.68,24.42,10758.96,7781.6,12572.8,-1262.48,10882.4,14450.48
1901,1.0,0.945,1.0,0.951,0.331,23.58,25.7,11326.96,8337.6,12652.8,-429.48,9012.4,13433.48
1921,1.0,0.937,0.751,0.985,0.282,22.37,26.72,10914.96,7589.6,12652.8,-1367.48,7714.4,12955.48
1941,1.0,0.922,1.0,1.0,0.674,21.01,27.51,10442.96,6213.6,13200.8,-849.48,6069.4,13687.48
1961,1.0,0.93,1.0,0.962,1.0,19.53,28.53,10702.96,8941.6,13612.8,-1093.48,4621.4,13590.48
1982,1.0,0.805,1.0,0.996,0.723,18.04,29.22,10942.96,11321.6,13300.8,-5040.48,4164.4,12198.48
2001,1.0,0.922,1.0,1.0,0.282,16.6,29.54,11262.96,9977.6,13048.8,-6888.48,4799.4,10483.48
2021,1.0,0.578,1.0,0.538,0.87,15.14,29.87,10886.96,8745.6,14000.8,-5067.48,3922.4,9616.48
2041,1.0,0.93,1.0,0.979,1.0,13.46,30.47,11014.96,8297.6,15264.8,-1737.48,2095.4,9182.48
2061,1.0,0.914,1.0,0.968,0.968,11.66,31.24,11470.96,8889.6,15916.8,-426.48,1120.4,8165.48
2082,1.0,0.734,1.0,0.951,0.527,9.88,31.92,11770.96,8849.6,15480.8,-1108.48,1116.4,7177.48
2101,1.0,0.953,1.0,1.0,0.429,8.27,32.54,11246.96,7953.6,15344.8,-793.48,1464.4,6612.48
2121,1.0,0.883,1.0,0.996,1.0,6.79,33.36,11078.96,8561.6,15068.8,35.52,1650.4,5687.48
2140,1.0,0.93,1.0,0.951,0.527,5.37,34.17,10662.96,8193.6,14960.8,427.52,1240.4,4472.48
2161,1.0,1.0,1.0,0.985,0.282,3.92,35.14,10830.96,7789.6,14020.8,1247.52,1038.4,3867.48
2181,1.0,0.93,0.678,1.0,0.0,2.56,36.34,10962.96,8153.6,13904.8,2664.52,1386.4,3309.48
2202,1.0,0.93,1.0,0.968,0.0,1.41,37.56,11250.96,9233.6,14168.8,2562.52,2535.4,2294.48
2220,1.0,0.914,1.0,0.985,1.0,0.44,38.39,10590.96,8325.6,13672.8,529.52,2912.4,635.48
2240,1.0,0.875,1.0,0.951,1.0,-0.52,38.94,9582.96,7077.6,13520.8,-298.48,1667.4,71.48
2260,1.0,0.906,1.0,0.962,0.674,-1.62,39.38,9598.96,6993.6,13720.8,-609.48,411.4,-182.52
2281,1.0,0.969,1.0,0.979,0.478,-2.75,39.61,9962.96,6489.6,13272.8,-1885.48,522.4,-453.52
2301,1.0,0.93,1.0,1.0,0.576,-3.57,39.68,9006.96,6273.6,13820.8,-2292.48,960.4,-509.52
2321,1.0,0.851,1.0,0.99,0.674,-4.41,39.58,8386.96,5977.6,14824.8,-2301.48,-252.6,19.48
2341,1.0,0.906,1.0,0.956,0.527,-5.44,39.71,8658.96,6417.6,14916.8,-1081.48,-1598.6,340.48
2361,1.0,0.758,1.0,0.956,0.772,-6.49,39.97,8958.96,6669.6,14644.8,-579.48,-1695.6,328.48
2380,1.0,0.969,1.0,0.9,1.0,-7.43,40.22,9158.96,6757.6,14952.8,-442.48,-1056.6,310.48
2401,1.0,0.82,0.0,1.0,1.0,-8.16,40.39,8698.96,6737.6,15520.8,-436.48,-553.6,-41.52
2421,1.0,0.922,1.0,0.962,0.87,-8.79,40.6,8258.96,6773.6,15328.8,-276.48,-686.6,-251.52
2441,1.0,0.93,1.0,0.985,0.282,-9.4,40.73,8066.96,6633.6,15444.8,-509.48,-946.6,-250.52
2461,1.0,0.93,0.604,0.99,0.87,-10.04,40.88,8454.96,6493.6,15768.8,-9.48,-1047.6,44.48
2480,1.0,0.937,1.0,0.962,0.38,-10.54,41.08,8194.96,6765.6,15896.8,260.52,-572.6,-94.52
2500,1.0,0.719,1.0,0.996,0.38,-10.94,41.36,8174.96,6733.6,15932.8,923.52,-186.6,-322.52
2520,1.0,0.906,0.604,0.968,0.0,-11.31,41.61,8334.96,6961.6,16032.8,765.52,62.4,-422.52
2541,1.0,0.93,1.0,1.0,0.0,-11.57,41.75,8578.96,7061.6,15736.8,-293.48,867.4,-810.52
2562,1.0,0.64,0.604,0.866,1.0,-11.69,41.73,7906.96,6373.6,15564.8,-792.48,983.4,-802.52
2581,1.0,0.875,0.0,0.679,0.0,-11.8,41.84,7870.96,6757.6,15156.8,-577.48,901.4,-845.52
2600,1.0,0.922,0.165,1.0,1.0,-11.97,41.86,7690.96,6489.6,15456.8,-619.48,148.4,-702.52
2621,1.0,0.914,1.0,0.951,0.674,-12.23,41.99,8218.96,6457.6,15108.8,-129.48,50.4,-648.52
2640,1.0,0.891,1.0,0.973,0.478,-12.4,42.13,8162.96,6673.6,14876.8,-373.48,452.4,-763.52
2662,1.0,0.922,1.0,0.934,0.0,-12.45,42.26,7838.96,6581.6,14928.8,-286.48,830.4,-764.52
2681,1.0,0.914,0.824,0.888,0.282,-12.54,42.3,7698.96,6089.6,14764.8,-487.48,235.4,-538.52
2700,1.0,0.906,1.0,0.962,0.38,-12.75,42.38,7870.96,6045.6,14872.8,-97.48,-451.6,-227.52
2720,1.0,0.875,0.0,0.815,1.0,-12.98,42.58,7994.96,6597.6,14812.8,206.52,-626.6,-200.52
2741,1.0,0.93,1.0,0.979,0.723,-13.12,42.68,7850.96,6469.6,14824.8,-242.48,-244.6,-248.52
2760,1.0,0.93,1.0,0.973,0.772,-13.24,42.72,7670.96,6053.6,14828.8,-246.48,-477.6,-239.52
2781,1.0,0.883,1.0,0.956,0.772,-13.43,42.82,7902.96,6281.6,15032.8,107.52,-864.6,-43.52
2800,1.0,0.93,1.0,0.996,0.919,-13.66,42.95,8150.96,6461.6,15060.8,321.52,-899.6,128.48
2821,1.0,0.789,1.0,1.0,0.919,-13.83,43.1,8362.96,6801.6,15372.8,368.52,-411.6,14.48
2841,1.0,0.945,1.0,0.968,0.674,-13.87,43.18,8306.96,6729.6,15336.8,-20.48,239.4,-170.52
2862,1.0,0.844,1.0,0.973,0.282,-13.9,43.29,8082.96,6537.6,14944.8,185.52,59.4,-288.52
2881,1.0,1.0,1.0,0.973,0.478,-13.95,43.49,8262.96,6849.6,14896.8,464.52,20.4,-221.52
2902,1.0,0.891,1.0,0.99,1.0,-13.97,43.66,8210.96,6985.6,14840.8,198.52,27.4,-379.52
2922,1.0,0.906,1.0,0.985,0.674,-13.99,43.82,8386.96,6637.6,14720.8,410.52,243.4,-478.52
2941,1.0,0.898,1.0,0.939,0.478,-13.94,44.01,8178.96,6825.6,14536.8,336.52,383.4,-603.52
2962,1.0,1.0,1.0,0.973,0.723,-13.87,44.09,8086.96,6653.6,14668.8,-65.48,360.4,-550.52
2981,1.0,1.0,1.0,0.99,0.0,-13.83,44.17,8026.96,6753.6,14596.8,-207.48,-36.6,-588.52
