timestamp,flex_1,flex_2,flex_3,flex_4,flex_5,kalman_pitch,kalman_roll,acc_x,acc_y,acc_z,gyro_x,gyro_y,gyro_z
0,1.0,0.291,0.0,1.0,0.13,5.68,85.1,-2.0,1152.56,16697.6,2500.28,420.42,216.38
19,1.0,0.39,0.108,1.0,0.0,-14.15,44.82,-702.0,712.56,17525.6,537.28,715.42,-351.62
40,1.0,0.498,0.0,1.0,1.0,-24.07,22.19,-730.0,-603.44,17801.6,-71.72,-300.58,-495.62
60,1.0,0.775,0.0,1.0,1.0,-30.82,7.18,-334.0,-883.44,16953.6,1132.28,-1265.58,-325.62
80,1.0,0.39,0.0,1.0,0.0,-36.12,-2.85,306.0,-131.44,16725.6,1460.28,-1492.58,1222.38
100,1.0,0.429,1.0,1.0,0.0,-39.29,-10.05,-286.0,-1123.44,18153.6,792.28,-1655.58,792.38
120,1.0,0.683,0.0,1.0,0.0,-41.51,-15.37,-442.0,-1423.44,18833.6,1607.28,-1354.58,-605.62
140,1.0,0.513,0.0,0.962,0.0,-42.87,-18.85,-770.0,-1163.44,20349.6,2679.28,-406.58,-757.62
160,1.0,0.667,0.0,1.0,1.0,-43.74,-21.64,-122.0,-2211.44,22541.6,1753.28,-1034.58,-1604.62
180,1.0,0.636,0.0,1.0,0.0,-44.47,-23.7,-122.0,-1583.44,24041.6,416.28,-1905.58,-1046.62
200,1.0,0.767,0.0,1.0,1.0,-44.91,-25.69,742.0,-2587.44,25965.6,-1097.72,-1492.58,828.38
220,1.0,0.537,0.0,1.0,1.0,-44.77,-28.22,1330.0,-2979.44,24317.6,-3855.72,4485.42,2741.38
240,1.0,0.483,1.0,1.0,0.0,-43.35,-31.36,1106.0,-5207.44,25065.6,-7388.72,11681.42,2962.38
260,1.0,0.221,0.0,0.914,0.13,-41.19,-34.16,1802.0,-7611.44,26237.6,-5239.72,16512.42,4626.38
280,1.0,0.091,0.0,0.917,0.0,-38.44,-35.76,1846.0,-7799.44,26741.6,1309.28,21662.42,7473.38
300,1.0,0.0,0.0,1.0,0.0,-35.41,-36.24,2598.0,-5475.44,27825.6,4915.28,26188.42,11032.38
320,1.0,0.145,0.0,0.934,0.0,-32.08,-37.43,2454.0,-6107.44,26889.6,1085.28,29795.42,13328.38
340,1.0,1.0,1.0,1.0,0.0,-28.46,-39.4,890.0,-8539.44,26517.6,-2250.72,31327.42,13281.38
360,1.0,0.39,1.0,1.0,0.0,-24.91,-40.6,202.0,-8063.44,27993.6,603.28,31530.42,15195.38
380,1.0,0.267,0.108,1.0,0.0,-21.57,-41.27,622.0,-8687.44,28365.6,3986.28,31530.42,21238.38
400,1.0,0.529,0.0,1.0,0.0,-18.23,-40.58,-282.0,-10235.44,29429.6,13745.28,31530.42,22886.38
420,1.0,0.198,0.0,1.0,0.0,-14.95,-38.43,-2258.0,-9619.44,28241.6,24561.28,31530.42,19689.38
440,1.0,0.198,0.0,1.0,0.0,-11.94,-36.77,-3142.0,-6063.44,27445.6,19636.28,31530.42,20152.38
460,1.0,0.045,1.0,1.0,0.0,-8.93,-35.38,-4786.0,-3731.44,28481.6,15599.28,31530.42,21093.38
480,1.0,0.437,0.0,1.0,1.0,-6.03,-34.45,-6394.0,-2427.44,26485.6,12747.28,31530.42,20444.38
500,1.0,0.168,1.0,1.0,0.0,-2.89,-34.37,-9150.0,-3095.44,25125.6,8887.28,31530.42,18521.38
520,1.0,0.052,0.0,1.0,0.0,0.5,-34.04,-11582.0,-2303.44,25509.6,9456.28,31530.42,20161.38
540,1.0,0.145,0.0,1.0,1.0,4.02,-33.19,-13362.0,-1771.44,25549.6,12568.28,31530.42,23209.38
560,1.0,0.237,0.0,1.0,1.0,7.18,-31.75,-12894.0,1104.56,23209.6,14767.28,31530.42,23963.38
580,1.0,0.275,0.0,1.0,0.0,10.37,-31.05,-13942.0,2132.56,19165.6,11703.28,31530.42,22858.38
600,0.7,0.598,0.0,1.0,0.0,14.45,-30.59,-17570.0,-23.44,19229.6,14386.28,31530.42,23935.38
620,0.0,0.114,1.0,1.0,0.39,18.27,-26.85,-16846.0,5992.56,19453.6,23908.28,31530.42,25309.38
640,0.0,0.106,0.0,0.642,0.0,22.98,-21.98,-18134.0,9028.56,15473.6,20898.28,31530.42,21538.38
660,0.0,0.0,1.0,0.693,0.0,29.2,-18.97,-19762.0,7336.56,12929.6,13143.28,31530.42,18084.38
680,0.0,0.267,0.0,0.348,1.0,34.79,-14.65,-19734.0,8192.56,12861.6,15956.28,30398.42,18103.38
700,0.0,0.244,0.0,0.277,0.0,39.18,-7.71,-20170.0,11336.56,11385.6,17262.28,29090.42,16614.38
720,0.0,0.275,0.0,0.288,0.0,43.16,-0.8,-21562.0,11712.56,9821.6,11824.28,26456.42,13385.38
740,0.0,0.137,1.0,0.342,0.0,46.11,6.95,-20650.0,11800.56,7089.6,9644.28,24441.42,10997.38
760,0.0,0.0,0.0,0.311,0.0,48.21,14.31,-20622.0,12884.56,6089.6,8323.28,22126.42,8773.38
780,0.0,0.283,0.0,0.322,0.779,50.04,21.05,-22514.0,13584.56,5593.6,6000.28,19439.42,6776.38
800,0.0,0.106,1.0,0.229,0.0,51.27,27.2,-23502.0,13932.56,5673.6,4312.28,15040.42,5215.38
820,0.0,0.145,0.0,0.297,0.0,51.56,33.14,-22790.0,14380.56,3997.6,1960.28,11617.42,3376.38
840,0.0,0.275,0.0,0.268,0.0,51.59,38.98,-22898.0,13392.56,3673.6,685.28,9277.42,2482.38
860,0.0,0.006,0.0,0.192,1.0,51.45,44.39,-23882.0,14232.56,4113.6,1204.28,7368.42,2315.38
880,0.0,0.721,0.0,0.243,0.0,51.15,49.41,-25434.0,14452.56,4757.6,1328.28,4375.42,1896.38
900,0.0,0.183,0.0,0.331,1.0,50.64,54.58,-25162.0,13476.56,4545.6,1776.28,2353.42,1446.38
920,0.0,0.39,1.0,0.161,0.0,50.17,59.54,-25634.0,13552.56,4781.6,2289.28,1809.42,1165.38
940,0.0,0.344,0.0,0.192,0.0,49.78,63.82,-26646.0,14184.56,5889.6,1999.28,1074.42,1006.38
960,0.0,0.16,0.0,0.183,0.0,49.38,67.58,-27814.0,14440.56,6497.6,1249.28,-157.58,691.38
980,0.0,0.075,0.0,0.282,0.0,49.02,71.24,-27838.0,13576.56,6545.6,593.28,-1090.58,291.38
999,0.0,0.145,1.0,0.285,1.0,48.5,74.66,-26558.0,14392.56,6261.6,393.28,-333.58,-14.62
1019,0.0,0.337,0.0,0.282,0.0,48.32,78.11,-27086.0,13384.56,6157.6,-125.72,345.42,79.38
1040,0.0,0.0,0.0,0.237,0.0,48.25,81.3,-27762.0,13988.56,6737.6,1280.28,709.42,328.38
1059,0.0,0.0,0.0,0.226,0.0,48.17,84.23,-27966.0,14152.56,6645.6,461.28,573.42,-514.62
1080,0.0,0.275,0.0,0.24,0.0,48.21,87.29,-26558.0,13680.56,5709.6,-533.72,2527.42,-1520.62
1100,0.0,0.214,1.0,0.141,1.0,48.64,90.08,-27638.0,13428.56,6541.6,-27.72,3514.42,-1627.62
1120,0.0,0.352,0.0,0.186,0.779,48.94,92.85,-29270.0,13716.56,6593.6,1199.28,1927.42,-751.62
1140,0.0,0.06,0.304,0.243,1.0,48.75,95.67,-28322.0,14112.56,5873.6,1324.28,-54.58,-74.62
1160,0.0,0.306,0.0,0.056,0.0,48.39,98.33,-27274.0,13904.56,5285.6,-362.72,-398.58,-517.62
1180,0.0,0.145,0.0,0.195,1.0,48.32,100.78,-27762.0,13236.56,5917.6,-721.72,-42.58,-891.62
1199,0.0,0.214,0.0,0.158,0.0,48.39,103.33,-28354.0,12932.56,6097.6,634.28,76.42,-327.62
1219,0.0,0.214,0.304,0.178,0.0,48.38,105.39,-28866.0,14020.56,6609.6,827.28,-168.58,3.38
1240,0.0,0.121,0.0,0.223,0.0,48.24,107.23,-28694.0,14224.56,6433.6,-215.72,-757.58,215.38
1260,0.0,0.152,0.0,0.138,1.0,48.15,109.27,-27766.0,13320.56,5989.6,-353.72,-554.58,318.38
1280,0.0,0.045,0.0,0.189,0.0,48.11,111.19,-27378.0,13900.56,5641.6,-495.72,810.42,-206.62
1300,0.0,0.0,0.0,0.359,0.0,48.32,112.85,-28402.0,13640.56,6353.6,-499.72,1069.42,-326.62
1320,0.0,0.145,0.0,0.18,0.0,48.39,114.34,-28678.0,14156.56,6421.6,-269.72,315.42,106.38
1340,0.0,0.0,0.0,0.084,0.0,48.28,115.91,-27938.0,13928.56,6089.6,-160.72,-476.58,643.38
1360,0.0,0.0,0.0,0.209,0.0,48.15,117.73,-27114.0,13572.56,5621.6,605.28,-152.58,807.38
1380,0.0,0.06,0.0,0.178,0.0,48.19,119.16,-28026.0,14048.56,6293.6,574.28,301.42,364.38
1400,0.0,0.129,1.0,0.107,1.0,48.27,120.27,-27930.0,14044.56,6657.6,-350.72,351.42,-300.62
1420,0.0,0.145,1.0,0.175,0.0,48.38,121.38,-27966.0,13692.56,6333.6,-1020.72,353.42,-624.62
1439,0.0,0.145,0.0,0.161,0.0,48.48,122.78,-27726.0,13084.56,6077.6,-109.72,17.42,-91.62
1459,0.0,0.191,0.0,0.155,1.0,48.48,124.19,-27334.0,13536.56,6009.6,1014.28,58.42,638.38
1479,0.0,0.168,0.0,0.195,0.0,48.49,125.25,-27730.0,14200.56,6241.6,447.28,231.42,433.38
1500,0.0,0.068,0.0,0.192,0.0,48.48,126.21,-28030.0,13948.56,6057.6,-512.72,-285.58,-142.62
1520,0.0,0.114,1.0,0.265,0.0,48.44,127.29,-27646.0,13332.56,5873.6,-496.72,-742.58,-61.62
1540,0.0,0.375,0.0,0.144,0.0,48.4,128.37,-27154.0,13468.56,5757.6,-203.72,-238.58,50.38
1560,0.0,0.168,1.0,0.209,1.0,48.56,129.01,-27862.0,13896.56,6457.6,-716.72,479.42,-353.62
1580,0.0,0.152,0.0,0.175,0.0,48.78,129.61,-28426.0,13568.56,6697.6,-659.72,130.42,-366.62
1600,0.0,0.168,0.304,0.118,0.0,48.88,130.28,-27770.0,13572.56,6609.6,-99.72,-239.58,105.38
1619,0.0,0.006,0.0,0.129,0.0,48.94,130.9,-27478.0,13800.56,6525.6,15.28,-27.58,413.38
1639,0.0,0.183,0.0,0.161,0.0,49.06,131.46,-27678.0,14100.56,6497.6,141.28,513.42,257.38
1659,0.0,0.029,1.0,0.192,0.0,49.27,132.1,-28058.0,13824.56,6473.6,632.28,571.42,252.38
1680,0.0,0.39,0.0,0.141,0.0,49.4,132.97,-28018.0,13776.56,6197.6,1888.28,164.42,786.38
1699,0.0,0.145,1.0,0.132,0.0,49.34,133.81,-27402.0,14228.56,5749.6,1681.28,6.42,633.38
1720,0.0,0.145,0.0,0.146,1.0,49.37,134.25,-27582.0,14524.56,5909.6,-14.72,563.42,-490.62
1740,0.0,0.037,0.0,0.183,0.0,49.56,134.75,-28338.0,13632.56,5869.6,-564.72,385.42,-926.62
1760,0.0,0.106,0.0,0.149,0.0,49.68,135.43,-27826.0,13388.56,5749.6,295.28,110.42,-271.62
1780,0.0,0.198,0.0,0.183,0.0,49.78,136.1,-27602.0,13460.56,5509.6,224.28,318.42,-152.62
1799,0.0,0.244,0.0,0.138,0.0,49.94,136.61,-28022.0,13664.56,5973.6,572.28,298.42,17.38
1820,0.0,0.137,0.0,0.081,0.0,50.06,137.01,-28246.0,13624.56,6189.6,453.28,-219.58,212.38
1839,0.0,0.291,0.0,0.101,0.0,50.17,137.42,-27774.0,13432.56,5961.6,17.28,-100.58,72.38
1860,0.0,0.068,0.304,0.104,0.0,50.29,137.71,-27674.0,13608.56,5885.6,-539.72,291.42,-196.62
1880,0.0,0.306,0.0,0.217,0.0,50.48,138.04,-27802.0,13352.56,5833.6,-496.72,471.42,-72.62
1900,0.0,0.221,1.0,0.127,0.0,50.7,138.36,-28418.0,13400.56,6281.6,619.28,123.42,644.38
1920,0.0,0.152,0.0,0.161,0.0,50.77,138.57,-28198.0,14040.56,6157.6,555.28,-194.58,850.38
1940,0.0,0.221,0.0,0.226,1.0,50.83,138.61,-27842.0,14116.56,5909.6,-798.72,180.42,129.38
1960,0.0,0.39,0.0,0.22,1.0,51.0,138.88,-27522.0,13344.56,5301.6,-1248.72,845.42,-468.62
1979,0.0,0.145,1.0,0.183,1.0,51.21,139.22,-27922.0,13452.56,5745.6,399.28,727.42,196.38
1999,0.0,0.198,0.304,0.11,0.0,51.23,139.36,-28134.0,14412.56,5929.6,715.28,33.42,721.38
2020,0.0,0.375,1.0,0.217,0.0,51.2,139.32,-27750.0,14272.56,6093.6,-174.72,-363.58,439.38
2040,0.0,0.429,0.0,0.047,0.0,51.28,139.34,-27234.0,13740.56,5725.6,-1063.72,522.42,-515.62
2060,0.0,0.098,0.0,0.013,0.0,51.54,139.59,-27370.0,13176.56,5581.6,-387.72,1212.42,-494.62
2079,0.0,0.014,0.0,0.115,1.0,51.75,139.72,-28018.0,13820.56,6145.6,804.28,740.42,328.38
2100,0.0,0.145,0.0,0.163,0.649,51.8,139.71,-28118.0,13964.56,6109.6,181.28,-221.58,400.38
2120,0.0,0.337,0.0,0.127,0.0,51.76,139.76,-27330.0,13680.56,5565.6,-711.72,-305.58,-95.62
2140,0.0,0.029,0.0,0.22,1.0,51.89,140.01,-27234.0,12888.56,5577.6,-355.72,205.42,-24.62
2159,0.0,0.475,0.0,0.127,0.0,52.09,140.04,-27846.0,13604.56,6257.6,583.28,494.42,404.38
2180,0.0,0.022,0.0,0.172,0.0,52.17,139.8,-28278.0,14192.56,6561.6,200.28,-205.58,480.38
2200,0.0,0.0,1.0,0.098,0.0,52.12,139.56,-27650.0,14212.56,5985.6,-906.72,-334.58,-126.62
2220,0.0,0.39,0.0,0.192,0.0,52.22,139.59,-27250.0,13256.56,5657.6,-842.72,241.42,-441.62
2239,0.0,0.275,0.0,0.127,0.0,52.36,139.69,-27598.0,13744.56,5941.6,888.28,509.42,250.38
2259,0.0,0.121,0.0,0.22,0.0,52.41,139.54,-28094.0,14460.56,6273.6,827.28,67.42,462.38
2280,0.0,0.26,0.0,0.098,0.0,52.37,139.23,-27966.0,14496.56,6029.6,-684.72,-347.58,-262.62
2300,0.0,0.029,0.0,0.056,0.39,52.39,139.09,-27502.0,13516.56,5625.6,-1438.72,-237.58,-916.62
2319,0.0,0.0,1.0,0.192,0.0,52.52,139.22,-27470.0,13220.56,5805.6,430.28,107.42,-26.62
2340,0.0,0.214,0.5,0.146,0.13,52.67,139.21,-28290.0,14064.56,6377.6,1724.28,165.42,926.38
2360,0.0,0.175,0.0,0.081,0.649,52.72,139.04,-28430.0,14444.56,6133.6,655.28,-141.58,587.38
2380,0.0,0.0,1.0,0.178,0.0,52.71,138.89,-27542.0,13964.56,5497.6,-826.72,-69.58,-336.62
2400,0.0,0.321,1.0,0.161,0.0,52.81,138.86,-27518.0,13352.56,5645.6,-501.72,107.42,-297.62
2419,0.0,0.129,0.0,0.081,0.0,52.96,138.89,-27794.0,13520.56,5973.6,761.28,232.42,445.38
2439,0.0,0.0,1.0,0.158,0.0,53.1,138.73,-28330.0,13924.56,6277.6,685.28,18.42,526.38
2459,0.0,0.068,0.0,0.127,0.0,53.23,138.56,-27870.0,13512.56,5989.6,-394.72,46.42,-66.62
2480,0.0,0.16,0.0,0.141,0.0,53.38,138.48,-27766.0,13416.56,5893.6,-109.72,218.42,-110.62
2499,0.0,0.221,0.0,0.073,0.0,53.43,138.39,-27554.0,14036.56,5793.6,517.28,292.42,134.38
2519,0.0,0.214,0.0,0.104,0.0,53.48,138.34,-27586.0,13952.56,5685.6,563.28,265.42,183.38
2539,0.0,0.367,0.0,0.132,1.0,53.56,138.22,-27922.0,13860.56,5725.6,38.28,118.42,-172.62
2560,0.0,0.406,1.0,0.104,0.0,53.61,137.97,-27702.0,13824.56,5717.6,-795.72,56.42,-481.62
2580,0.0,0.352,0.0,0.141,0.0,53.73,137.94,-27538.0,13344.56,5665.6,-46.72,281.42,-117.62
2600,0.0,0.0,0.0,0.042,0.0,53.9,137.91,-28014.0,13604.56,6025.6,1031.28,313.42,513.38
2619,0.0,0.275,0.0,0.076,0.0,54.0,137.78,-28226.0,13904.56,5897.6,516.28,81.42,540.38
2639,0.0,0.137,0.0,0.121,0.0,54.03,137.55,-27846.0,14044.56,5725.6,-231.72,67.42,116.38
2660,0.0,0.367,0.0,0.107,1.0,54.18,137.43,-27570.0,13368.56,5761.6,-302.72,423.42,-94.62
2680,0.0,0.214,0.0,0.203,0.0,54.28,137.44,-27590.0,13672.56,5773.6,1060.28,418.42,453.38
2699,0.0,0.39,1.0,0.081,0.0,54.27,137.27,-27926.0,14284.56,5765.6,676.28,-68.58,490.38
2720,0.0,0.175,0.0,0.172,1.0,54.17,136.99,-27926.0,14172.56,5537.6,-663.72,-678.58,-150.62
2740,0.0,0.152,1.0,0.166,0.0,54.16,136.82,-27458.0,13152.56,5561.6,-1148.72,-646.58,-475.62
2760,0.0,0.244,0.0,0.132,0.0,54.2,136.85,-27190.0,13164.56,5693.6,439.28,-219.58,242.38
2779,0.0,0.352,0.0,0.146,0.909,54.3,136.71,-27870.0,13860.56,5953.6,739.28,155.42,423.38
2800,0.0,0.406,0.0,0.217,0.519,54.34,136.4,-28070.0,14096.56,6137.6,193.28,-226.58,189.38
2820,0.0,0.145,0.0,0.163,0.0,54.38,136.14,-27766.0,13660.56,5973.6,-224.72,-328.58,-2.62
2839,0.0,0.022,0.0,0.101,0.0,54.47,136.02,-27502.0,13516.56,5753.6,65.28,160.42,17.38
2859,0.0,0.068,0.0,0.107,0.0,54.62,135.93,-27710.0,13680.56,5765.6,517.28,585.42,47.38
2879,0.0,0.137,0.0,0.042,1.0,54.72,135.71,-27918.0,14012.56,5945.6,456.28,311.42,56.38
2899,0.0,0.091,0.0,0.107,0.0,54.71,135.47,-27894.0,14080.56,5749.6,-0.72,-251.58,10.38
2920,0.0,0.137,0.0,0.104,1.0,54.67,135.33,-27474.0,13772.56,5401.6,-324.72,-246.58,-63.62
2939,0.0,0.229,1.0,0.195,1.0,54.73,135.18,-27618.0,13568.56,5653.6,-131.72,25.42,43.38
2960,0.0,0.0,1.0,0.101,0.0,54.81,135.05,-27842.0,13584.56,5893.6,373.28,-103.58,299.38
2979,0.0,0.045,0.0,0.138,1.0,54.85,134.89,-27694.0,13844.56,5825.6,480.28,-12.58,384.38
