timestamp,flex_1,flex_2,flex_3,flex_4,flex_5,kalman_pitch,kalman_roll,acc_x,acc_y,acc_z,gyro_x,gyro_y,gyro_z
0,0.0,0.544,1.0,0.0,0.384,57.7,4.49,1633.2,-3997.68,17575.04,-2565.98,2265.1,-88.26
20,0.416,0.552,1.0,0.0,1.0,42.53,0.35,1477.2,-4109.68,17595.04,-1057.98,3854.1,-423.26
41,0.416,0.468,1.0,0.0,0.0,36.12,-0.45,1269.2,-3225.68,17279.04,1259.02,4623.1,-347.26
61,0.708,0.501,1.0,0.0,0.273,32.48,-1.3,1353.2,-3761.68,16939.04,1657.02,4145.1,-1002.26
81,1.0,0.838,1.0,0.0,1.0,30.1,-0.81,1025.2,-2189.68,17443.04,1013.02,2871.1,-3166.26
101,0.708,0.501,1.0,0.0,0.273,28.0,-0.08,2073.2,-1281.68,16707.04,-330.98,3006.1,-2371.26
122,0.562,0.586,1.0,0.0,0.44,26.7,-0.88,1621.2,-3277.68,17123.04,-2515.98,3863.1,-2225.26
141,0.124,0.207,1.0,0.0,1.0,26.16,-1.89,673.2,-4145.68,17951.04,-2328.98,5342.1,-1652.26
160,0.416,0.577,1.0,0.0,1.0,26.13,-2.98,-134.8,-5649.68,18543.04,-125.98,6847.1,-11.26
181,0.416,0.544,1.0,0.0,0.384,26.2,-3.7,577.2,-6065.68,18843.04,2147.02,9088.1,2018.74
200,1.0,0.51,1.0,0.0,1.0,27.17,-4.13,-806.8,-6341.68,19627.04,3576.02,13193.1,3306.74
221,0.854,0.493,1.0,0.0,0.273,29.08,-4.19,-5578.8,-5869.68,21003.04,4191.02,13930.1,4493.74
242,0.27,0.51,1.0,0.0,0.329,30.93,-3.87,-5006.8,-5265.68,19835.04,5925.02,14462.1,7267.74
261,0.708,0.527,1.0,0.0,0.329,33.14,-3.04,-6466.8,-4121.68,19155.04,7662.02,15515.1,10068.74
281,0.562,0.535,1.0,0.0,1.0,35.18,-1.5,-7358.8,-1713.68,19895.04,8809.02,15277.1,13225.74
301,0.562,0.476,1.0,0.0,0.0,37.79,-0.0,-7938.8,-1497.68,17447.04,8714.02,17567.1,14049.74
320,0.854,0.527,1.0,0.0,0.384,40.16,1.42,-8506.8,-1397.68,17955.04,8879.02,17164.1,13352.74
342,0.562,0.552,1.0,0.0,1.0,42.78,3.69,-7358.8,1626.32,15919.04,9424.02,19915.1,11344.74
362,1.0,0.426,1.0,0.0,1.0,45.56,5.67,-6542.8,2014.32,14675.04,6985.02,22077.1,10364.74
381,0.27,0.586,1.0,1.0,0.106,49.08,8.21,-9994.8,3390.32,11847.04,6667.02,23390.1,10840.74
402,0.416,0.628,1.0,0.228,0.0,52.5,10.73,-9222.8,1822.32,11699.04,10864.02,23948.1,13993.74
422,0.27,0.661,1.0,0.241,0.106,56.18,15.29,-7854.8,4206.32,8635.04,16639.02,26961.1,15653.74
441,0.854,0.653,1.0,1.0,1.0,59.63,20.28,-8822.8,6094.32,8203.04,17632.02,27540.1,14753.74
462,0.854,0.67,1.0,0.386,1.0,62.84,25.09,-8750.8,6806.32,6083.04,12992.02,27008.1,13596.74
481,0.124,0.569,1.0,0.384,1.0,65.48,29.77,-8338.8,5766.32,4195.04,10208.02,22807.1,10650.74
501,1.0,0.544,1.0,0.44,1.0,67.3,34.71,-6230.8,6490.32,2643.04,8961.02,20570.1,9603.74
520,0.708,0.283,1.0,0.376,1.0,68.93,40.19,-5626.8,5874.32,511.04,8305.02,19992.1,7732.74
541,0.124,0.367,1.0,0.343,1.0,70.38,45.7,-4850.8,5562.32,-492.96,7310.02,20164.1,6376.74
561,0.124,0.375,1.0,0.373,1.0,71.64,51.53,-5266.8,5070.32,-1712.96,7460.02,19223.1,7443.74
582,0.124,0.224,1.0,0.441,1.0,72.08,57.74,-4326.8,6402.32,-3244.96,10062.02,17649.1,8038.74
602,0.562,0.232,1.0,0.37,0.217,72.09,63.81,-4350.8,7174.32,-3668.96,11122.02,16081.1,7302.74
621,1.0,0.0,1.0,0.341,1.0,71.6,69.44,-4718.8,8058.32,-4692.96,9270.02,13797.1,5959.74
642,0.562,0.157,0.718,0.305,1.0,70.66,74.52,-4694.8,8098.32,-5096.96,6655.02,11010.1,3394.74
660,0.854,0.165,1.0,0.291,1.0,69.18,79.14,-3734.8,8326.32,-5188.96,5194.02,8464.1,1935.74
681,0.27,0.123,1.0,0.337,1.0,67.28,83.58,-2874.8,7994.32,-4900.96,5582.02,5888.1,1025.74
701,0.708,0.056,1.0,0.226,1.0,65.25,87.67,-2802.8,7602.32,-4420.96,5018.02,4026.1,-844.26
721,1.0,0.14,0.0,0.275,1.0,62.87,91.28,-2334.8,7766.32,-3852.96,4200.02,1383.1,-2415.26
740,1.0,0.005,1.0,0.242,1.0,60.21,94.68,-1202.8,6718.32,-3692.96,3194.02,-712.9,-3558.26
762,0.854,0.031,1.0,0.224,0.44,57.72,97.56,-2158.8,6598.32,-2488.96,3009.02,-2509.9,-5357.26
781,1.0,0.0,1.0,0.243,1.0,55.11,100.37,-2374.8,5510.32,-1944.96,3645.02,-6120.9,-5776.26
802,0.27,0.0,1.0,0.26,1.0,52.41,102.42,-3070.8,6414.32,-364.96,4238.02,-8248.9,-5815.26
822,1.0,0.014,1.0,0.231,1.0,50.0,103.6,-3018.8,4570.32,1503.04,3790.02,-10344.9,-5404.26
841,0.0,0.0,1.0,0.215,1.0,47.52,104.07,-2614.8,4542.32,2063.04,1367.02,-11472.9,-5823.26
860,0.27,0.0,1.0,0.193,1.0,45.54,103.71,-4442.8,3726.32,3127.04,119.02,-12261.9,-5490.26
881,0.124,0.0,1.0,0.19,1.0,43.58,103.35,-4166.8,4058.32,3435.04,1035.02,-12182.9,-3382.26
901,0.0,0.0,1.0,0.209,1.0,41.99,102.75,-4646.8,3998.32,4059.04,1733.02,-10883.9,-1091.26
920,0.562,0.157,1.0,0.19,1.0,40.46,102.05,-5442.8,4566.32,5079.04,3443.02,-10675.9,663.74
940,0.562,0.031,1.0,0.163,1.0,39.06,101.28,-5494.8,5734.32,5311.04,2325.02,-9080.9,686.74
961,1.0,0.0,1.0,0.211,1.0,37.9,100.72,-7374.8,6970.32,4871.04,1614.02,-8463.9,179.74
980,0.27,0.0,1.0,0.163,1.0,36.83,99.95,-5758.8,6566.32,4811.04,378.02,-7592.9,60.74
1000,0.854,0.0,1.0,0.169,0.0,35.9,99.04,-7090.8,6846.32,5091.04,-294.98,-7952.9,-645.26
1020,1.0,0.0,1.0,0.174,1.0,34.9,97.68,-5902.8,6142.32,6231.04,-292.98,-8175.9,-495.26
1042,0.27,0.224,1.0,0.174,0.0,33.76,96.15,-4910.8,7146.32,6091.04,-3031.98,-7802.9,-2557.26
1061,0.0,0.0,1.0,0.163,1.0,33.33,94.44,-5050.8,5906.32,4767.04,-6649.98,-5478.9,-4544.26
1081,0.854,0.0,0.0,0.158,1.0,34.03,92.8,-5246.8,4198.32,4415.04,-5863.98,-564.9,-2481.26
1101,1.0,0.0,1.0,0.159,1.0,35.06,91.47,-7818.8,4490.32,5519.04,-1411.98,820.1,142.74
1120,0.562,0.0,1.0,0.144,1.0,35.47,90.64,-7426.8,5354.32,6327.04,2567.02,-1605.9,1485.74
1140,0.708,0.0,1.0,0.149,1.0,35.65,89.97,-6366.8,6674.32,5903.04,1194.02,-1176.9,228.74
1161,0.27,0.014,1.0,0.139,1.0,36.21,88.98,-7130.8,6118.32,5279.04,-1963.98,-138.9,-1547.26
1180,0.416,0.0,1.0,0.173,1.0,36.9,88.24,-7510.8,5926.32,4715.04,-1637.98,162.1,-1265.26
1201,0.0,0.0,1.0,0.179,1.0,37.66,87.89,-7934.8,5938.32,4247.04,-313.98,290.1,-166.26
1220,0.0,0.0,1.0,0.155,1.0,38.26,87.66,-8750.8,6678.32,4203.04,-117.98,-473.9,-196.26
1241,0.27,0.0,1.0,0.14,1.0,38.67,87.48,-7490.8,6594.32,3731.04,-842.98,-974.9,-637.26
1260,0.124,0.0,1.0,0.136,0.273,39.14,87.23,-7070.8,6830.32,3923.04,-995.98,84.1,-1389.26
1280,0.124,0.148,1.0,0.145,0.0,39.84,86.99,-7722.8,6354.32,3771.04,-1047.98,735.1,-1780.26
1300,0.416,0.0,1.0,0.137,1.0,40.66,86.96,-8006.8,5978.32,3139.04,-1074.98,945.1,-2051.26
1320,0.27,0.0,1.0,0.153,1.0,41.48,86.89,-8318.8,5610.32,3031.04,-1466.98,463.1,-1509.26
1340,0.124,0.0,1.0,0.158,1.0,42.26,86.71,-7850.8,4918.32,3363.04,-948.98,-27.9,-404.26
1360,0.708,0.0,1.0,0.161,0.0,42.91,86.76,-6562.8,5146.32,3255.04,185.02,392.1,58.74
1380,0.854,0.0,1.0,0.138,1.0,43.7,86.81,-7326.8,5318.32,3099.04,-216.98,1075.1,-138.26
1400,1.0,0.0,1.0,0.174,1.0,44.4,86.98,-7270.8,5326.32,2727.04,-436.98,737.1,-99.26
1421,0.0,0.098,1.0,0.149,0.0,45.09,87.02,-7250.8,4934.32,2927.04,-512.98,322.1,47.74
1440,1.0,0.0,1.0,0.192,0.0,45.72,87.24,-6634.8,4898.32,2611.04,-121.98,409.1,34.74
1461,1.0,0.0,1.0,0.16,0.329,46.43,87.31,-7210.8,4958.32,2879.04,-257.98,830.1,-220.26
1481,0.0,0.0,1.0,0.151,1.0,47.04,87.59,-7458.8,5302.32,2323.04,-445.98,478.1,-342.26
1500,0.708,0.0,1.0,0.159,1.0,47.61,87.69,-7586.8,4982.32,2543.04,-940.98,-73.9,-261.26
1521,0.854,0.0,1.0,0.163,0.552,48.13,87.62,-7290.8,4986.32,3015.04,-610.98,1.1,-118.26
1540,0.124,0.0,1.0,0.144,1.0,48.67,87.61,-7250.8,4958.32,2951.04,-428.98,148.1,-147.26
1561,1.0,0.0,1.0,0.169,1.0,49.21,87.62,-7454.8,4846.32,2767.04,-753.98,10.1,-378.26
1581,0.27,0.0,1.0,0.14,0.329,49.71,87.71,-7226.8,4930.32,2563.04,-715.98,92.1,-343.26
1600,0.0,0.0,1.0,0.13,1.0,50.24,87.66,-7866.8,4926.32,3019.04,-406.98,95.1,67.74
1619,0.27,0.0,1.0,0.06,1.0,50.69,87.75,-7666.8,4906.32,2771.04,-49.98,-311.9,580.74
1641,0.416,0.064,1.0,0.127,0.0,51.07,87.74,-7582.8,5122.32,2979.04,-237.98,-315.9,526.74
1661,0.0,0.0,1.0,0.145,0.0,51.45,87.65,-7394.8,5098.32,3091.04,-401.98,-155.9,534.74
1681,0.0,0.148,1.0,0.136,1.0,51.85,87.6,-7390.8,5074.32,3059.04,-221.98,31.1,538.74
1701,0.0,0.014,1.0,0.126,1.0,52.27,87.61,-7454.8,5302.32,2959.04,-122.98,437.1,408.74
1721,0.708,0.0,1.0,0.118,0.44,52.7,87.61,-7898.8,5250.32,2903.04,-286.98,267.1,505.74
1741,0.0,0.0,0.427,0.122,0.44,53.07,87.75,-7594.8,5374.32,2623.04,-18.98,262.1,658.74
1761,0.27,0.0,0.0,0.103,1.0,53.42,87.86,-7770.8,5490.32,2707.04,-8.98,224.1,630.74
1780,0.124,0.0,0.0,0.11,0.384,53.69,87.91,-7638.8,5566.32,2907.04,71.02,-18.9,570.74
1801,0.708,0.0,1.0,0.087,1.0,53.93,87.95,-7142.8,5466.32,2895.04,124.02,20.1,183.74
1820,0.562,0.0,1.0,0.122,1.0,54.2,87.88,-7406.8,5462.32,2927.04,-547.98,151.1,-304.26
1840,0.27,0.0,1.0,0.081,1.0,54.51,87.81,-7330.8,5126.32,2899.04,-461.98,100.1,-518.26
1861,0.27,0.0,1.0,0.133,1.0,54.81,87.8,-7238.8,5066.32,2759.04,-439.98,65.1,-341.26
1881,0.562,0.014,1.0,0.171,1.0,55.14,87.79,-7474.8,4778.32,2775.04,-215.98,-71.9,90.74
1901,0.27,0.0,1.0,0.153,1.0,55.37,87.69,-7586.8,5022.32,3035.04,-209.98,-471.9,514.74
1920,0.27,0.0,1.0,0.16,1.0,55.53,87.73,-6910.8,5134.32,2795.04,53.02,-378.9,692.74
1939,0.416,0.0,1.0,0.138,1.0,55.67,87.69,-7246.8,5478.32,2959.04,-164.98,-318.9,604.74
1961,0.708,0.0,1.0,0.114,1.0,55.76,87.62,-7254.8,5678.32,3023.04,-227.98,-419.9,428.74
1980,0.0,0.0,1.0,0.12,1.0,55.9,87.52,-7250.8,5382.32,3011.04,-347.98,-347.9,4.74
2000,0.124,0.0,0.0,0.124,1.0,56.05,87.44,-7678.8,5550.32,2903.04,-573.98,-432.9,-116.26
2020,0.416,0.0,1.0,0.07,1.0,56.12,87.27,-7530.8,5390.32,3243.04,-279.98,-909.9,186.74
2040,0.416,0.0,1.0,0.127,0.0,56.15,87.08,-7178.8,5614.32,3407.04,-122.98,-731.9,187.74
2061,0.854,0.0,1.0,0.128,1.0,56.28,86.89,-7194.8,5502.32,3387.04,-117.98,-179.9,-174.26
2080,0.124,0.106,1.0,0.127,1.0,56.48,86.67,-7358.8,5294.32,3411.04,-275.98,20.1,-441.26
2100,0.416,0.0,1.0,0.118,1.0,56.67,86.48,-7294.8,5294.32,3267.04,-376.98,14.1,-403.26
2120,0.27,0.0,1.0,0.124,1.0,56.89,86.22,-7438.8,4898.32,3283.04,-648.98,-221.9,-193.26
2141,0.0,0.0,1.0,0.122,1.0,57.04,86.09,-7234.8,5142.32,3171.04,-239.98,-327.9,198.74
2160,0.0,0.0,0.0,0.094,0.384,57.16,85.92,-7326.8,5254.32,3431.04,40.02,-316.9,569.74
2181,0.0,0.283,1.0,0.112,1.0,57.26,85.85,-7322.8,5426.32,3295.04,334.02,-367.9,581.74
2201,0.27,0.0,1.0,0.11,1.0,57.33,85.77,-7162.8,5594.32,3219.04,71.02,-283.9,150.74
2220,0.0,0.0,1.0,0.11,1.0,57.41,85.67,-7454.8,5578.32,3083.04,-466.98,-391.9,-258.26
2240,0.27,0.0,1.0,0.111,1.0,57.49,85.49,-7438.8,5334.32,3315.04,-307.98,-551.9,-203.26
2260,0.708,0.0,0.621,0.109,1.0,57.55,85.25,-7382.8,5310.32,3647.04,54.02,-643.9,40.74
2281,0.0,0.0,1.0,0.101,1.0,57.66,85.03,-7258.8,5294.32,3655.04,136.02,-246.9,-0.26
2300,1.0,0.014,1.0,0.014,1.0,57.86,84.81,-7746.8,5274.32,3611.04,97.02,137.1,-5.26
2320,0.0,0.0,1.0,0.008,1.0,58.03,84.73,-7598.8,5422.32,3315.04,189.02,114.1,20.74
2341,0.0,0.266,1.0,0.01,1.0,58.21,84.61,-7614.8,5330.32,3375.04,116.02,121.1,8.74
2361,1.0,0.0,1.0,0.017,0.273,58.4,84.48,-7458.8,5066.32,3307.04,-18.98,112.1,42.74
2380,0.27,0.148,1.0,0.01,1.0,58.62,84.37,-7534.8,5182.32,3307.04,48.02,379.1,29.74
2401,0.27,0.0,1.0,0.014,1.0,58.81,84.24,-7598.8,5230.32,3299.04,-57.98,217.1,57.74
2421,0.854,0.0,1.0,0.017,1.0,58.95,84.19,-7406.8,5234.32,3143.04,20.02,94.1,115.74
2440,0.27,0.0,1.0,0.017,1.0,59.09,84.13,-7642.8,5178.32,3179.04,62.02,-76.9,279.74
2459,0.562,0.0,1.0,0.015,1.0,59.2,84.06,-7518.8,5326.32,3291.04,249.02,-82.9,309.74
2480,0.27,0.0,0.039,0.017,1.0,59.27,83.98,-7414.8,5590.32,3351.04,163.02,67.1,235.74
2501,0.124,0.0,1.0,0.017,0.217,59.35,83.87,-7638.8,5630.32,3423.04,152.02,83.1,166.74
2520,0.124,0.0,1.0,0.031,0.162,59.42,83.7,-7570.8,5646.32,3547.04,-74.98,135.1,-69.26
2541,0.562,0.0,1.0,0.014,1.0,59.55,83.48,-7558.8,5358.32,3527.04,-302.98,251.1,-317.26
2560,0.416,0.0,1.0,0.024,1.0,59.65,83.28,-7498.8,5398.32,3511.04,-248.98,193.1,-255.26
2581,0.27,0.0,1.0,0.02,1.0,59.73,83.09,-7090.8,5062.32,3559.04,51.02,-9.9,42.74
2600,0.0,0.0,1.0,0.028,1.0,59.84,82.97,-7290.8,5278.32,3419.04,69.02,275.1,43.74
2621,0.124,0.0,1.0,0.024,1.0,59.95,82.8,-7518.8,5338.32,3535.04,-20.98,295.1,-42.26
2641,0.416,0.0,1.0,0.042,0.0,60.04,82.7,-7678.8,5474.32,3311.04,-185.98,136.1,218.74
2660,0.708,0.0,0.0,0.056,0.106,60.09,82.62,-7470.8,5282.32,3387.04,209.02,-125.9,571.74
2680,0.416,0.0,1.0,0.028,0.0,60.13,82.56,-7358.8,5586.32,3351.04,139.02,118.1,361.74
2700,0.416,0.0,1.0,0.025,0.44,60.15,82.42,-7362.8,5610.32,3503.04,-103.98,103.1,93.74
2721,0.27,0.0,1.0,0.0,1.0,60.15,82.35,-7246.8,5598.32,3411.04,107.02,59.1,161.74
2741,0.416,0.022,1.0,0.012,1.0,60.21,82.29,-7178.8,5254.32,3279.04,92.02,86.1,198.74
2760,0.27,0.0,1.0,0.0,0.0,60.25,82.24,-7330.8,5478.32,3255.04,-4.98,100.1,29.74
2780,0.27,0.0,1.0,0.015,0.329,60.29,82.21,-7170.8,5238.32,3143.04,-62.98,5.1,64.74
2800,0.27,0.0,1.0,0.017,1.0,60.35,82.17,-7166.8,5290.32,3247.04,46.02,144.1,159.74
2821,0.27,0.0,0.0,0.028,0.0,60.4,82.15,-7038.8,5214.32,3115.04,-19.98,149.1,158.74
2841,0.124,0.0,1.0,0.0,0.329,60.47,82.17,-7202.8,5402.32,2975.04,-173.98,318.1,-11.26
2861,0.124,0.0,1.0,0.0,1.0,60.5,82.13,-7482.8,5450.32,3143.04,-234.98,43.1,97.74
2880,0.416,0.0,1.0,0.0,1.0,60.47,82.19,-7030.8,5618.32,3071.04,239.02,-22.9,107.74
2900,0.416,0.0,1.0,0.001,1.0,60.48,82.06,-7254.8,5382.32,3287.04,-405.98,-23.9,-304.26
2920,0.708,0.0,1.0,0.0,0.273,60.47,82.0,-7078.8,5322.32,3135.04,-335.98,-93.9,-438.26
2941,0.562,0.0,1.0,0.022,1.0,60.51,81.91,-7214.8,5162.32,3223.04,-291.98,-64.9,-297.26
2960,0.562,0.0,1.0,0.0,1.0,60.52,81.81,-7194.8,5158.32,3223.04,-335.98,-235.9,-114.26
2981,1.0,0.0,1.0,0.0,1.0,60.54,81.62,-7230.8,5146.32,3475.04,-343.98,-112.9,123.74
