timestamp,flex_1,flex_2,flex_3,flex_4,flex_5,kalman_pitch,kalman_roll,acc_x,acc_y,acc_z,gyro_x,gyro_y,gyro_z
0,0.985,0.0,0.398,0.0,0.0,45.68,221.07,-575.92,-1402.56,15651.12,1507.68,1520.28,1016.68
19,1.0,0.0,1.0,0.21,0.0,13.79,131.15,-503.92,-1022.56,16139.12,2458.68,1405.28,1054.68
39,1.0,0.0,0.0,0.0,0.0,-2.47,86.33,-455.92,-654.56,16427.12,2539.68,1411.28,1348.68
59,1.0,0.0,0.0,0.21,0.0,-12.6,58.77,-199.92,-714.56,16127.12,2051.68,1352.28,1545.68
79,1.0,0.41,0.769,0.0,0.0,-19.5,40.08,-39.92,-762.56,16247.12,1226.68,1252.28,1107.68
99,1.0,0.112,0.604,0.0,0.0,-24.61,26.88,-43.92,-278.56,16431.12,1228.68,1323.28,660.68
118,1.0,0.0,0.48,0.0,0.0,-28.72,16.57,32.08,-18.56,16031.12,225.68,1370.28,200.68
139,0.884,0.0,0.0,0.0,0.0,-31.64,8.02,-935.92,-314.56,16079.12,-1332.32,1632.28,317.68
159,1.0,0.0,0.769,0.331,0.0,-33.79,0.15,-347.92,-1962.56,16095.12,-2860.32,1906.28,807.68
179,0.985,0.0,1.0,0.0,1.0,-35.37,-7.68,-371.92,-3834.56,15139.12,-4932.32,1900.28,822.68
199,1.0,0.0,0.0,0.06,0.0,-36.11,-15.23,-2311.92,-4466.56,14483.12,-8080.32,2760.28,1575.68
220,0.734,0.0,0.728,0.0,0.0,-36.27,-22.69,-2247.92,-6134.56,14671.12,-12526.32,4283.28,3458.68
240,0.473,0.0,0.0,0.0,0.0,-35.48,-31.08,-3439.92,-9938.56,13455.12,-19822.32,6042.28,5711.68
260,0.772,0.0,0.48,0.097,0.0,-33.96,-39.92,-5703.92,-13090.56,13419.12,-27357.32,6759.28,8823.68
280,0.501,0.0,1.0,0.0,0.0,-32.76,-49.21,-4583.92,-17150.56,11047.12,-31997.32,5329.28,15409.68
300,0.261,0.0,0.48,0.0,0.0,-31.44,-57.4,-5899.92,-17078.56,12675.12,-31456.32,5460.28,20443.68
320,0.303,0.0,1.0,0.041,0.0,-30.28,-65.7,-6511.92,-15958.56,8947.12,-32211.32,4949.28,20774.68
340,0.324,0.0,0.563,0.21,1.0,-29.56,-74.07,-5931.92,-18766.56,4615.12,-32211.32,2162.28,20057.68
359,0.278,0.058,0.0,0.0,0.0,-29.41,-82.02,-5471.92,-21538.56,2879.12,-32211.32,-1661.72,21219.68
380,0.327,0.042,1.0,0.0,0.0,-29.92,-89.43,-4791.92,-20846.56,3067.12,-32211.32,-5467.72,23319.68
400,0.539,0.0,0.0,0.275,0.0,-30.77,-96.6,-4735.92,-19274.56,1607.12,-32211.32,-7778.72,24792.68
419,0.456,0.0,0.0,0.0,1.0,-32.17,-103.62,-4943.92,-15318.56,655.12,-32211.32,-11111.72,22388.68
440,0.372,0.0,0.192,0.294,0.555,-33.92,-110.26,-5351.92,-14086.56,783.12,-32211.32,-14169.72,18801.68
459,0.585,0.0,1.0,0.0,1.0,-35.94,-116.27,-7579.92,-12126.56,2859.12,-32211.32,-18413.72,17094.68
479,0.557,0.0,0.357,0.116,0.0,-38.28,-122.23,-6839.92,-8454.56,2399.12,-32211.32,-19468.72,16119.68
500,0.445,0.0,0.0,0.828,0.0,-39.87,-127.72,-8831.92,-7570.56,2571.12,-31135.32,-17569.72,15452.68
520,0.574,0.0,0.068,0.0,0.0,-40.96,-131.98,-8723.92,-4402.56,3523.12,-24209.32,-13209.72,14221.68
540,0.414,0.0,0.0,0.0,0.0,-40.89,-135.67,-10415.92,-2566.56,3663.12,-20688.32,-7923.72,12007.68
559,0.772,0.0,0.233,0.0,0.0,-39.97,-139.4,-10891.92,-1526.56,2651.12,-19464.32,-3033.72,9527.68
580,0.849,0.0,1.0,0.0,0.0,-38.76,-143.53,-9619.92,-678.56,887.12,-19770.32,1491.28,7645.68
600,0.752,0.0,0.48,0.0,0.0,-36.9,-148.47,-7395.92,1213.44,-1112.88,-21577.32,9937.28,6013.68
620,0.647,0.0,0.0,0.0,0.0,-33.88,-153.6,-7375.92,-370.56,-2720.88,-25868.32,17229.28,3672.68
640,0.654,0.0,0.0,0.519,0.0,-31.0,-159.43,-5079.92,-2806.56,-7516.88,-32211.32,17437.28,1734.68
660,0.431,0.0,0.357,0.0,0.0,-29.28,-165.19,-2115.92,-2334.56,-10296.88,-32211.32,12320.28,183.68
680,0.424,0.0,0.0,0.0,0.0,-29.72,-170.68,-727.92,-1986.56,-10728.88,-32211.32,-1013.72,1062.68
700,0.306,0.0,0.068,0.313,1.0,-32.72,-175.63,-807.92,-86.56,-12244.88,-28384.32,-19363.72,1391.68
719,0.264,0.0,0.0,0.0,0.0,-37.17,-179.38,2164.08,4145.44,-13964.88,-17570.32,-28811.72,6.68
740,0.32,0.0,0.0,0.0,0.0,-41.87,-182.07,880.08,3557.44,-13344.88,-12403.32,-33024.72,-519.32
759,0.306,0.0,0.068,0.0,0.0,-46.37,-184.28,-1155.92,4609.44,-11224.88,-9511.32,-34149.72,-701.32
780,0.177,0.042,0.027,0.0,0.05,-50.35,-186.35,-4475.92,5793.44,-8376.88,-8306.32,-34149.72,-458.32
800,0.598,0.0,0.0,0.0,0.0,-53.34,-188.45,-9639.92,6277.44,-4928.88,-9095.32,-34149.72,-1386.32
819,0.55,0.0,0.728,0.0,0.0,-55.43,-190.83,-12683.92,6933.44,-1888.88,-10883.32,-34149.72,-2844.32
839,0.734,0.0,0.357,0.032,0.0,-56.01,-192.78,-15911.92,6349.44,1459.12,-10779.32,-34149.72,-2826.32
860,0.637,0.0,0.233,0.219,0.555,-54.85,-173.64,-19047.92,7265.44,3687.12,-5709.32,-34149.72,-1922.32
879,0.706,0.0,0.563,0.0,0.0,-53.47,-156.74,-19191.92,10365.44,5463.12,-377.32,-34149.72,-827.32
899,0.665,0.058,0.48,0.0,0.0,-50.71,-142.83,-22915.92,10777.44,8979.12,1443.68,-31795.72,-675.32
920,0.546,0.0,1.0,0.041,0.0,-47.03,-130.89,-26799.92,10745.44,10847.12,1646.68,-26964.72,-885.32
940,0.536,0.0,0.852,0.0,0.0,-43.21,-120.99,-27767.92,10545.44,13571.12,690.68,-23693.72,-1398.32
960,0.505,0.0,0.0,0.041,0.723,-39.34,-111.96,-29391.92,10945.44,17075.12,1773.68,-19948.72,-1359.32
980,0.491,0.0,0.687,0.0,0.0,-34.75,-103.0,-30863.92,12089.44,18879.12,3282.68,-13014.72,-1467.32
1000,0.428,0.0,1.0,0.0,0.0,-29.0,-94.52,-30787.92,12137.44,18411.12,1790.68,-4191.72,-2558.32
1019,0.574,0.0,0.893,0.0,0.0,-21.94,-87.67,-31375.92,8973.44,16715.12,-1521.32,3424.28,-3236.32
1040,0.383,0.144,0.0,0.0,1.0,-14.18,-81.28,-31091.92,8133.44,15507.12,-1203.32,8963.28,-2287.32
1059,0.567,0.0,0.975,0.0,0.0,-6.01,-74.39,-29911.92,8389.44,13387.12,1077.68,12357.28,-1044.32
1079,0.414,0.0,0.522,0.0,0.0,2.43,-65.74,-27719.92,9113.44,10671.12,2227.68,14903.28,-598.32
1099,0.397,0.0,1.0,0.004,0.0,10.86,-52.69,-25335.92,9049.44,6911.12,2649.68,18551.28,-668.32
1119,0.324,0.0,0.893,0.0,1.0,19.05,-38.91,-24171.92,9061.44,4079.12,2634.68,24376.28,-301.32
1139,0.445,0.0,0.687,0.079,1.0,27.68,-24.79,-25663.92,7393.44,3899.12,1630.68,28898.28,255.68
1160,0.386,0.0,0.645,0.0,0.0,35.3,-11.32,-24407.92,7261.44,1339.12,26.68,29502.28,-335.32
1179,0.237,0.0,1.0,0.004,0.0,41.06,0.79,-20091.92,9801.44,-4552.88,-1811.32,30722.28,-1229.32
1200,0.292,0.0,1.0,0.0,0.0,45.56,11.31,-15907.92,12733.44,-8552.88,-6899.32,31385.28,-1887.32
1220,0.581,0.0,0.398,0.0,0.0,49.97,21.2,-17119.92,8453.44,-9492.88,-13593.32,31385.28,-2110.32
1240,0.637,0.0,0.357,0.0,0.0,54.96,11.08,-20723.92,4085.44,-5276.88,-17459.32,31385.28,708.68
1259,0.438,0.0,0.0,0.051,0.0,59.0,1.96,-17811.92,4097.44,-7040.88,-12605.32,31385.28,7196.68
1280,0.324,0.347,0.0,0.051,1.0,59.78,13.53,-10763.92,11717.44,-9256.88,369.68,19446.28,8157.68
1299,0.4,0.0,0.728,0.0,0.0,59.79,26.08,-9607.92,10421.44,-13372.88,8364.68,15562.28,7434.68
1320,0.445,0.0,1.0,0.0,0.0,59.3,38.51,-5619.92,11365.44,-15596.88,11804.68,15636.28,10091.68
1339,0.511,0.0,0.0,0.0,1.0,59.28,50.86,-4707.92,10865.44,-14800.88,14780.68,20104.28,10475.68
1360,0.376,0.0,0.0,0.0,1.0,58.28,62.51,-4831.92,8061.44,-18028.88,11104.68,13102.28,6279.68
1379,0.418,0.0,0.439,0.032,0.0,54.82,72.06,-1743.92,9365.44,-21284.88,1016.68,-2561.72,1915.68
1399,0.421,0.0,0.0,0.0,0.0,50.1,80.21,-1975.92,9729.44,-20724.88,-5485.32,-12083.72,-577.32
1420,0.612,0.0,0.893,0.453,0.0,44.4,87.42,-2915.92,10081.44,-18948.88,-9098.32,-20385.72,-3424.32
1440,0.477,0.0,0.687,0.0,0.0,38.11,94.07,-4931.92,10609.44,-17080.88,-10329.32,-27196.72,-4687.32
1460,0.543,0.0,0.439,0.0,0.0,31.85,100.59,-6803.92,11493.44,-15084.88,-8235.32,-30037.72,-6132.32
1479,0.623,0.0,0.0,0.107,1.0,26.09,106.82,-10119.92,11653.44,-11432.88,-7378.32,-30952.72,-8433.32
1499,0.661,0.0,1.0,0.0,0.0,20.94,112.62,-12979.92,11201.44,-7552.88,-7929.32,-31579.72,-9943.32
1520,0.63,0.159,1.0,0.135,1.0,16.72,118.03,-15439.92,11009.44,-5064.88,-8209.32,-30349.72,-11133.32
1540,0.696,0.0,0.398,0.0,0.0,14.02,122.99,-18307.92,9709.44,75.12,-9199.32,-28888.72,-11871.32
1560,0.505,0.0,0.068,0.0,0.0,12.94,127.65,-21023.92,8877.44,3099.12,-9350.32,-27021.72,-12355.32
1579,0.484,0.0,1.0,0.032,0.0,13.46,132.71,-24107.92,7481.44,6195.12,-7794.32,-25243.72,-11425.32
1600,0.505,0.058,0.0,0.0,0.0,14.66,122.07,-26943.92,5585.44,7751.12,-5480.32,-23052.72,-9640.32
1620,0.602,0.0,0.522,0.0,0.0,16.11,115.42,-28615.92,4857.44,9587.12,-1251.32,-21192.72,-6720.32
1640,0.616,0.0,1.0,0.06,0.0,18.28,111.17,-29243.92,6321.44,9567.12,4187.68,-17780.72,-3389.32
1659,0.574,0.0,0.439,0.0,0.0,21.15,113.75,-28731.92,7849.44,9167.12,7284.68,-12544.72,-1111.32
1679,0.609,0.206,0.439,0.0,1.0,24.62,117.56,-28807.92,8733.44,8603.12,7754.68,-6594.72,-57.32
1699,0.706,0.0,0.48,0.0,0.0,28.37,123.42,-28919.92,8385.44,6475.12,5618.68,-2422.72,552.68
1719,0.672,0.0,0.0,0.032,0.0,31.98,128.7,-28399.92,9125.44,4675.12,2399.68,97.28,-290.32
1739,0.383,0.277,0.439,0.0,0.0,35.21,133.56,-28047.92,9237.44,2971.12,-902.32,635.28,-958.32
1760,0.348,0.0,1.0,0.0,0.0,37.94,137.92,-27099.92,9349.44,1523.12,-3871.32,279.28,-1553.32
1779,0.4,0.0,0.027,0.0,1.0,40.22,141.93,-26455.92,9469.44,31.12,-5561.32,-5.72,-1325.32
1800,0.536,0.292,0.0,0.0,0.05,42.43,145.71,-25871.92,10069.44,-452.88,-5044.32,1230.28,-661.32
1819,0.442,0.0,0.975,0.079,0.0,44.84,149.86,-26499.92,9189.44,179.12,-2611.32,2116.28,110.68
1839,0.424,0.0,0.233,0.0,0.387,47.27,154.46,-26427.92,8621.44,583.12,793.68,2454.28,703.68
1859,0.233,0.0,1.0,0.0,0.0,49.48,159.3,-26007.92,9033.44,343.12,4840.68,2400.28,1386.68
1879,0.404,0.105,0.233,0.0,0.0,51.53,164.27,-25707.92,9577.44,-336.88,8102.68,3109.28,2055.68
1899,0.358,0.0,0.0,0.0,0.0,53.53,168.9,-25959.92,10077.44,-600.88,8323.68,3679.28,2070.68
1919,0.466,0.0,0.48,0.116,0.0,55.33,172.87,-25795.92,9957.44,-612.88,5263.68,3097.28,1502.68
1939,0.498,0.0,1.0,0.116,0.0,56.84,176.05,-25447.92,10161.44,-1252.88,1220.68,2608.28,693.68
1959,0.438,0.0,0.522,0.0,0.0,58.21,178.89,-25447.92,9325.44,-1236.88,-1461.32,2061.28,359.68
1979,0.463,0.0,0.0,0.0,0.0,59.53,181.58,-25859.92,9077.44,-812.88,-1702.32,1460.28,530.68
1999,0.386,0.0,1.0,0.0,0.0,60.69,184.27,-25983.92,9137.44,-660.88,-494.32,631.28,866.68
2019,0.438,0.0,0.0,0.0,0.0,61.75,186.88,-25867.92,9637.44,-656.88,881.68,554.28,944.68
2039,0.505,0.0,1.0,0.0,0.0,62.75,189.42,-25867.92,9577.44,-1212.88,1109.68,1062.28,693.68
2059,0.376,0.0,0.233,0.0,0.0,63.72,191.7,-25743.92,9565.44,-1592.88,148.68,1713.28,310.68
2079,0.557,0.0,0.068,0.0,1.0,64.73,193.8,-26223.92,9069.44,-1380.88,-977.32,1770.28,58.68
2099,0.644,0.0,0.0,0.032,0.0,65.63,195.87,-26491.92,8629.44,-1124.88,-1046.32,942.28,93.68
2119,0.605,0.0,0.0,0.453,0.0,66.3,197.88,-26291.92,8953.44,-1020.88,5.68,-165.72,399.68
2139,0.501,0.0,0.0,0.0,0.0,66.87,199.76,-26159.92,9601.44,-860.88,1347.68,-453.72,592.68
2159,0.383,0.0,0.0,0.0,1.0,67.43,201.44,-25811.92,10169.44,-1100.88,1675.68,412.28,557.68
2179,0.424,0.0,0.0,0.0,0.0,68.01,202.83,-25727.92,10325.44,-1572.88,476.68,1311.28,158.68
2200,0.511,0.0,0.0,0.079,0.0,68.63,203.95,-25687.92,10065.44,-1668.88,-1147.32,1895.28,-136.32
2220,0.438,0.0,0.192,0.0,0.0,69.21,204.93,-25715.92,9861.44,-1732.88,-1855.32,2005.28,-182.32
2239,0.4,0.0,0.48,0.0,0.0,69.69,205.84,-25487.92,9901.44,-1392.88,-1528.32,1491.28,21.68
2259,0.731,0.0,0.0,0.0,1.0,70.06,206.82,-25263.92,9853.44,-1624.88,-750.32,1399.28,131.68
2279,0.706,0.0,0.0,0.004,0.0,70.3,207.85,-24767.92,9685.44,-1900.88,-216.32,1316.28,-64.32
2299,0.358,0.0,0.0,0.0,0.0,70.46,208.84,-24343.92,9569.44,-1816.88,-38.32,1247.28,-161.32
2319,0.219,0.0,0.728,0.022,0.0,70.66,209.79,-24679.92,9301.44,-1176.88,88.68,842.28,95.68
2339,0.303,0.0,1.0,0.0,0.0,70.77,210.7,-24995.92,9373.44,-1180.88,498.68,196.28,686.68
2359,0.546,0.0,1.0,0.0,0.0,70.83,211.51,-25043.92,9645.44,-1116.88,848.68,-11.72,1158.68
2379,0.473,0.0,0.0,0.0,0.05,70.9,212.13,-25275.92,9921.44,-1064.88,700.68,-1.72,1125.68
2399,0.4,0.0,0.192,0.0,0.0,71.03,212.64,-25547.92,9885.44,-1132.88,271.68,443.28,934.68
2419,0.525,0.0,0.0,0.0,0.0,71.16,213.07,-25783.92,9761.44,-1448.88,-211.32,670.28,688.68
2439,0.414,0.0,0.0,0.022,0.0,71.25,213.43,-25791.92,9669.44,-1632.88,-452.32,633.28,434.68
2459,0.317,0.0,0.687,0.079,1.0,71.29,213.74,-25811.92,9745.44,-1744.88,-368.32,604.28,308.68
2479,0.386,0.0,0.0,0.051,1.0,71.32,214.02,-25799.92,9677.44,-1804.88,-259.32,701.28,305.68
2499,0.4,0.0,0.604,0.0,1.0,71.31,214.25,-25671.92,9821.44,-1804.88,-44.32,705.28,287.68
2519,0.431,0.065,1.0,0.247,0.0,71.18,214.55,-25471.92,9625.44,-2088.88,406.68,399.28,420.68
2539,0.445,0.0,0.0,0.0,0.0,70.94,214.82,-25147.92,9937.44,-2268.88,988.68,141.28,466.68
2559,0.421,0.0,1.0,0.94,0.0,70.65,215.06,-24883.92,9993.44,-2192.88,1266.68,-14.72,384.68
2579,0.407,0.0,1.0,0.753,0.0,70.33,215.21,-24579.92,10117.44,-2004.88,1316.68,49.28,311.68
2599,0.303,0.0,0.0,0.0,0.0,70.04,215.27,-24471.92,10193.44,-1940.88,1227.68,272.28,184.68
2619,0.438,0.167,1.0,0.0,0.0,69.76,215.29,-24667.92,9977.44,-2224.88,811.68,452.28,96.68
2638,0.47,0.0,0.0,0.0,0.05,69.5,215.22,-24967.92,9925.44,-2108.88,399.68,306.28,-14.32
2659,0.623,0.0,0.728,0.013,0.0,69.3,215.09,-25203.92,9841.44,-1684.88,365.68,130.28,-172.32
2679,0.484,0.097,1.0,0.0,0.0,69.13,214.98,-25779.92,9781.44,-1504.88,721.68,-116.72,-340.32
2699,0.418,0.0,0.0,0.313,1.0,68.94,214.92,-25891.92,9777.44,-1500.88,1330.68,-340.72,-441.32
2719,0.55,0.0,0.0,0.313,0.0,68.73,214.92,-25723.92,9685.44,-1892.88,1624.68,9.28,-434.32
2739,0.383,0.0,0.439,0.0,0.0,68.58,214.88,-25671.92,9537.44,-2224.88,1307.68,734.28,-333.32
2759,0.376,0.089,0.522,0.388,1.0,68.48,214.69,-25883.92,9349.44,-1860.88,404.68,696.28,-303.32
2779,0.498,0.0,0.563,0.0,0.0,68.22,214.43,-25539.92,9225.44,-1988.88,-136.32,21.28,-121.32
2799,0.324,0.0,0.0,0.0,0.0,67.76,214.18,-24879.92,9397.44,-2364.88,230.68,-494.72,176.68
2819,0.216,0.0,0.48,0.0,0.0,67.26,213.91,-24535.92,9609.44,-2128.88,785.68,-611.72,309.68
2839,0.362,0.0,1.0,0.0,0.0,66.73,213.6,-24087.92,9789.44,-2208.88,892.68,-411.72,232.68
2858,0.195,0.0,0.109,0.0,0.0,66.25,213.18,-24003.92,9797.44,-2184.88,410.68,-89.72,30.68
2879,0.331,0.0,0.522,0.0,0.0,65.82,212.69,-24155.92,9525.44,-2112.88,-393.32,-18.72,-139.32
2899,0.268,0.0,0.0,0.041,0.0,65.41,212.14,-24203.92,9497.44,-1864.88,-625.32,-51.72,-14.32
2918,0.327,0.042,0.0,0.0,0.218,65.07,211.65,-24399.92,9397.44,-1596.88,-223.32,-95.72,149.68
2939,0.324,0.0,1.0,0.0,0.0,64.73,211.15,-24359.92,9721.44,-1832.88,265.68,239.28,157.68
2959,0.254,0.0,1.0,0.041,0.0,64.52,210.6,-24723.92,9749.44,-1808.88,101.68,824.28,-18.32
2980,0.383,0.0,1.0,0.032,0.0,64.37,210.04,-25095.92,9545.44,-2020.88,-303.32,1099.28,-186.32
