timestamp,flex_1,flex_2,flex_3,flex_4,flex_5,kalman_pitch,kalman_roll,acc_x,acc_y,acc_z,gyro_x,gyro_y,gyro_z
0,0.875,0.213,0.0,0.21,0.278,103.8,-168.66,-794.72,-1790.08,14480.96,-414.02,1805.12,-711.7
19,0.96,0.429,0.0,0.0,1.0,57.75,-134.93,317.28,-2674.08,15128.96,-402.02,2096.12,-949.7
39,0.898,0.41,0.145,0.098,1.0,33.25,-115.72,-422.72,-1894.08,15748.96,185.98,2710.12,-1181.7
59,1.0,0.071,0.643,0.0,1.0,18.06,-103.44,-838.72,-1990.08,16032.96,1223.98,1921.12,-1091.7
78,1.0,0.269,0.083,0.339,1.0,7.37,-95.1,-1066.72,-1706.08,15676.96,961.98,1125.12,-656.7
98,1.0,0.429,0.488,0.141,1.0,-0.43,-89.29,-1198.72,-2330.08,15724.96,457.98,48.12,-570.7
118,1.0,0.26,0.145,0.244,1.0,-6.7,-84.9,-982.72,-2366.08,15552.96,655.98,-794.88,-386.7
139,0.988,0.485,0.674,0.21,1.0,-12.07,-81.21,-422.72,-1934.08,15328.96,1907.98,-869.88,-254.7
159,0.95,0.0,0.0,0.21,0.0,-16.48,-78.21,-566.72,-1994.08,15240.96,2107.98,-856.88,-593.7
179,0.707,0.627,0.456,0.124,1.0,-20.09,-76.01,-1034.72,-3038.08,15208.96,1799.98,-2074.88,-901.7
199,0.414,0.194,0.114,0.167,1.0,-23.56,-74.13,-118.72,-3126.08,14920.96,2623.98,-2956.88,-1501.7
219,0.334,0.344,0.456,0.201,1.0,-26.28,-71.99,-1450.72,-2710.08,16492.96,1903.98,-3217.88,-2368.7
239,0.364,0.288,0.986,0.21,0.0,-28.42,-71.16,-1418.72,-5358.08,15940.96,-973.02,-3290.88,-1939.7
259,0.396,0.269,0.0,0.424,1.0,-29.74,-71.62,-1438.72,-7370.08,15080.96,-6087.02,-212.88,-1211.7
279,0.391,0.213,0.332,0.15,0.864,-29.94,-73.87,-3838.72,-11350.08,14248.96,-15228.02,1366.12,1440.3
299,0.366,0.0,0.363,0.236,1.0,-29.98,-77.48,-3314.72,-15858.08,13868.96,-23986.02,1062.12,8202.3
319,0.559,0.147,0.176,0.0,1.0,-30.07,-81.35,-2738.72,-18198.08,12988.96,-26131.02,552.12,15090.3
339,0.427,0.25,0.0,0.236,0.645,-30.19,-85.13,-1718.72,-19570.08,12780.96,-26893.02,863.12,20935.3
359,0.404,0.1,0.269,0.012,0.0,-30.03,-89.51,-1490.72,-22694.08,10460.96,-30400.02,2166.12,27478.3
379,0.406,0.128,0.0,0.382,0.0,-30.52,-93.86,889.28,-23394.08,10944.96,-32551.02,-758.88,32822.3
399,0.219,0.175,0.83,0.27,0.0,-31.19,-98.47,1425.28,-25134.08,6272.96,-32551.02,-2386.88,32822.3
419,0.211,0.429,0.0,0.0,0.0,-32.45,-102.82,3205.28,-25134.08,6032.96,-32551.02,-5651.88,32822.3
439,0.306,0.213,0.0,0.373,1.0,-34.06,-106.81,1157.28,-25134.08,6904.96,-32551.02,-9916.88,32822.3
459,0.261,0.156,0.0,0.27,1.0,-36.09,-110.75,657.28,-23458.08,5184.96,-32551.02,-13471.88,32822.3
479,0.289,0.438,0.0,0.0,0.0,-38.29,-114.73,-534.72,-21426.08,3000.96,-32551.02,-15858.88,32822.3
499,0.416,0.0,0.332,0.527,0.864,-40.73,-118.06,-2658.72,-17058.08,6856.96,-32551.02,-18604.88,32822.3
519,0.399,0.0,0.0,0.115,1.0,-43.21,-120.6,-5062.72,-13822.08,7232.96,-28716.02,-21096.88,32822.3
539,0.226,0.231,0.0,0.0,1.0,-45.78,-122.27,-6974.72,-10358.08,7316.96,-23631.02,-23603.88,32822.3
559,0.161,0.401,0.643,0.0,0.718,-47.9,-123.18,-9254.72,-8258.08,6368.96,-17599.02,-23984.88,32822.3
579,0.344,0.269,0.083,0.115,1.0,-49.8,-122.7,-9782.72,-3454.08,8460.96,-11451.02,-22540.88,32822.3
599,0.339,0.438,0.0,0.433,0.0,-50.75,-121.65,-11038.72,-746.08,8120.96,-6456.02,-18488.88,32822.3
619,0.349,0.0,0.0,0.141,0.498,-50.92,-120.96,-11910.72,1121.92,7284.96,-5583.02,-15670.88,32822.3
639,0.444,0.222,0.02,0.364,0.0,-50.01,-121.75,-12882.72,3213.92,5668.96,-7021.02,-12178.88,32822.3
659,0.559,0.288,0.0,0.09,0.0,-48.54,-123.83,-13042.72,5445.92,5912.96,-9427.02,-10263.88,32822.3
679,0.512,0.325,0.176,0.201,1.0,-45.9,-126.63,-14042.72,6121.92,5416.96,-9702.02,-7885.88,32822.3
699,0.432,0.269,0.176,0.236,1.0,-44.51,-110.86,-12386.72,7981.92,4652.96,-10751.02,-6048.88,32822.3
719,0.524,0.213,0.0,0.0,1.0,-42.88,-96.48,-11578.72,9753.92,3168.96,-10180.02,-1274.88,32822.3
739,0.667,0.128,0.0,0.0,0.0,-40.26,-83.8,-12474.72,12773.92,3760.96,-8505.02,2431.12,29597.3
759,0.82,0.137,0.0,0.622,0.0,-36.73,-74.18,-15542.72,16713.92,11500.96,-2749.02,2523.12,27141.3
779,0.717,0.269,0.612,0.639,0.0,-34.17,-62.72,-16486.72,19649.92,8568.96,5516.98,-3602.88,20211.3
799,0.993,0.0,0.0,0.0,1.0,-34.12,-51.66,-11170.72,25893.92,8596.96,6026.98,-11708.88,12446.3
819,0.687,0.457,0.02,0.201,1.0,-32.49,-39.81,-14246.72,24225.92,5776.96,10793.98,-4856.88,2484.3
839,0.677,0.297,0.0,0.167,1.0,-28.26,-28.93,-19570.72,21321.92,3720.96,3640.98,5703.12,-11741.7
859,0.727,0.532,0.176,0.141,1.0,-21.96,-19.61,-27486.72,15297.92,3652.96,-9288.02,8504.12,-18945.7
879,0.988,0.325,0.0,0.244,1.0,-15.81,-11.44,-31042.72,13633.92,3396.96,-17923.02,5998.12,-18150.7
899,0.682,0.316,0.238,0.0,0.938,-10.5,-3.81,-33638.72,12213.92,4700.96,-19490.02,-921.88,-11105.7
919,0.64,0.128,0.0,0.124,0.938,-6.16,4.18,-33574.72,13141.92,5660.96,-10332.02,-5990.88,-1407.7
939,0.672,0.128,0.0,0.519,1.0,-2.07,13.32,-30486.72,15257.92,6052.96,3461.98,-3819.88,2392.3
958,0.652,0.363,0.0,0.656,1.0,2.33,22.85,-27434.72,16973.92,5608.96,9199.98,2883.12,2501.3
978,0.677,0.25,0.0,0.141,0.0,6.68,31.74,-26094.72,17949.92,4372.96,6017.98,6153.12,528.3
998,0.652,0.024,0.0,0.21,1.0,10.76,40.14,-25750.72,15849.92,4836.96,4514.98,3709.12,502.3
1018,0.722,0.119,0.0,0.279,1.0,14.4,48.81,-24690.72,15777.92,3028.96,5181.98,3565.12,621.3
1038,0.655,0.137,0.519,0.261,1.0,17.69,57.28,-24402.72,14717.92,2384.96,3935.98,2095.12,-68.7
1059,0.629,0.438,0.0,0.227,0.0,20.46,64.73,-23550.72,15033.92,3016.96,1179.98,101.12,-1063.7
1079,0.717,0.307,0.0,0.124,1.0,23.02,71.14,-23146.72,14781.92,4688.96,-484.02,-1558.88,-2235.7
1099,0.629,0.636,0.768,0.0,0.0,25.42,76.76,-21958.72,15221.92,6136.96,262.98,-806.88,-3738.7
1119,0.602,0.561,0.332,0.261,1.0,28.03,81.55,-20934.72,15645.92,8204.96,2225.98,2658.12,-6533.7
1139,0.655,0.382,0.332,0.244,1.0,30.81,85.56,-19758.72,15481.92,10216.96,4082.98,6317.12,-11503.7
1159,0.607,0.391,0.0,0.416,1.0,33.61,88.95,-18554.72,14893.92,12172.96,6837.98,9552.12,-17506.7
1179,0.717,0.344,1.0,0.699,1.0,36.97,92.0,-18422.72,12821.92,12712.96,10668.98,12542.12,-23500.7
1199,0.632,0.269,0.0,0.107,0.0,41.52,94.89,-19870.72,10845.92,12192.96,14652.98,16405.12,-29305.7
1219,0.727,0.457,0.0,0.244,0.498,47.22,95.18,-22134.72,7205.92,11256.96,17296.98,19319.12,-32712.7
1239,0.66,0.476,0.176,0.218,0.0,52.91,91.68,-24578.72,2897.92,9304.96,19012.98,23411.12,-32712.7
1259,0.604,0.467,0.0,0.098,1.0,59.03,85.93,-29066.72,-406.08,3980.96,17844.98,31228.12,-32712.7
1279,0.685,0.307,0.176,0.0,0.0,64.55,78.66,-34682.72,-3962.08,-1615.04,10909.98,31508.12,-30670.7
1299,0.604,0.0,0.207,0.244,0.0,69.66,69.75,-40198.72,-6822.08,-6171.04,-103.02,31508.12,-22736.7
1319,0.637,0.231,0.0,0.279,0.791,74.08,59.46,-41138.72,-8882.08,-13731.04,-8646.02,31508.12,-7698.7
1339,0.65,0.269,0.0,0.124,0.0,76.42,48.73,-36570.72,-4386.08,-19307.04,-9195.02,21740.12,11405.3
1359,0.662,0.589,0.301,0.107,1.0,76.91,39.42,-30614.72,-3002.08,-24207.04,-18.02,14018.12,25519.3
1379,0.607,0.09,0.0,0.0,1.0,75.75,31.28,-28030.72,-986.08,-24207.04,7164.98,4249.12,31976.3
1399,0.577,0.222,0.083,0.184,0.205,73.95,23.41,-23754.72,2245.92,-24207.04,9293.98,1934.12,30478.3
1419,0.647,0.899,0.0,0.0,0.718,72.19,14.92,-18726.72,4005.92,-24207.04,4511.98,4839.12,27304.3
1439,0.524,0.0,0.0,0.107,1.0,69.39,6.16,-17306.72,2769.92,-24207.04,-51.02,-1715.88,26509.3
1459,0.617,0.316,0.0,0.261,1.0,65.52,-2.67,-15978.72,3937.92,-21855.04,-2092.02,-9074.88,25547.3
1479,0.559,0.335,0.269,0.39,1.0,60.69,-11.63,-13578.72,6297.92,-19059.04,-3521.02,-15198.88,22196.3
1499,0.604,0.0,0.0,0.0,1.0,55.22,-20.62,-10158.72,6801.92,-16963.04,-5722.02,-18246.88,18037.3
1519,0.604,0.843,0.737,0.0,1.0,49.74,-29.73,-9086.72,6597.92,-14827.04,-8995.02,-18873.88,15582.3
1539,0.542,0.542,0.332,0.296,1.0,44.09,-38.86,-9946.72,6973.92,-11459.04,-11365.02,-22046.88,13614.3
1559,0.687,0.382,0.083,0.0,0.0,38.52,-47.6,-11518.72,7345.92,-6655.04,-10768.02,-24543.88,12689.3
1579,0.715,0.467,0.207,0.167,1.0,33.28,-37.3,-12282.72,8445.92,-5299.04,-10029.02,-24942.88,9564.3
1599,0.567,0.325,0.0,0.339,1.0,27.78,-27.77,-10490.72,8773.92,-4859.04,-12482.02,-25733.88,5087.3
1619,0.66,0.325,0.332,0.27,1.0,22.87,-19.02,-11466.72,9453.92,-2603.04,-14096.02,-24576.88,3227.3
1639,0.604,0.325,0.0,0.124,0.0,18.88,-10.3,-13058.72,8669.92,680.96,-12877.02,-23164.88,2295.3
1659,0.584,0.222,0.674,0.107,1.0,16.06,-1.74,-14726.72,8517.92,2696.96,-11689.02,-22297.88,741.3
1679,0.725,0.325,0.0,0.236,1.0,12.36,6.16,-12790.72,8973.92,2436.96,-12818.02,-23015.88,-677.7
1699,0.532,0.335,0.394,0.39,0.059,8.29,13.42,-12206.72,8973.92,2468.96,-15399.02,-24946.88,-1158.7
1719,0.597,1.0,0.145,0.433,1.0,5.62,20.17,-14118.72,8545.92,4416.96,-17285.02,-25044.88,-700.7
1739,0.742,0.401,0.394,0.064,0.0,4.55,24.57,-14782.72,9065.92,7236.96,-19584.02,-25138.88,-1396.7
1759,0.732,0.833,0.083,0.442,0.571,-0.11,30.17,-11134.72,8089.92,4956.96,-24579.02,-25803.88,-4149.7
1779,0.682,0.965,0.0,0.648,1.0,-4.83,19.64,-10662.72,4185.92,5940.96,-28863.02,-26872.88,-4130.7
1799,0.645,0.975,0.145,0.673,1.0,-7.34,12.75,-13358.72,2769.92,9680.96,-24184.02,-24717.88,-1734.7
1819,0.617,0.73,0.176,0.974,1.0,-9.86,8.06,-12818.72,937.92,12576.96,-17244.02,-23184.88,-1531.7
1839,0.562,1.0,0.55,0.708,1.0,-13.31,4.01,-9086.72,2513.92,10884.96,-11850.02,-18787.88,-1093.7
1859,0.837,1.0,0.0,1.0,1.0,-15.43,0.1,-11062.72,5249.92,9268.96,-9049.02,-11075.88,2301.3
1879,0.732,1.0,0.425,0.656,1.0,-13.03,0.19,-14650.72,7177.92,13460.96,-6231.02,643.12,4852.3
1899,1.0,0.975,0.0,1.0,1.0,-9.21,0.15,-20522.72,4637.92,19916.96,-3782.02,7364.12,5150.3
1918,1.0,1.0,0.0,0.819,1.0,-5.38,1.37,-25338.72,6137.92,22188.96,2037.98,5402.12,8723.3
1939,1.0,1.0,0.0,1.0,0.0,-1.16,6.34,-23682.72,15473.92,18172.96,12479.98,9516.12,5546.3
1959,1.0,0.871,0.83,1.0,0.938,5.07,12.05,-28594.72,27141.92,22752.96,14095.98,27525.12,-3427.7
1979,1.0,1.0,0.301,1.0,0.0,11.96,15.85,-36554.72,32109.92,21276.96,-378.02,31508.12,-14879.7
1999,1.0,1.0,0.0,0.716,1.0,19.37,16.11,-45270.72,22861.92,22648.96,-18436.02,31508.12,-21653.7
2019,1.0,1.0,0.488,1.0,1.0,26.28,16.41,-45270.72,20241.92,18832.96,-19503.02,28422.12,-20497.7
2039,1.0,1.0,0.643,0.965,1.0,31.1,23.11,-45270.72,8005.92,6584.96,-16345.02,8223.12,-16165.7
2059,1.0,1.0,0.456,1.0,0.645,32.34,15.52,-45270.72,973.92,-5795.04,-1665.02,-7449.88,-8174.7
2079,1.0,0.984,0.0,1.0,0.571,33.72,10.74,-42378.72,397.92,-4051.04,14423.98,-6198.88,-3538.7
2098,1.0,1.0,0.456,0.939,0.0,35.45,4.12,-32822.72,7441.92,-663.04,10935.98,-3943.88,354.3
2119,1.0,1.0,0.0,0.991,1.0,36.73,11.99,-26070.72,11917.92,4992.96,3636.98,-7428.88,4506.3
2139,0.79,1.0,0.051,1.0,1.0,37.49,17.15,-20990.72,12629.92,8136.96,-1031.02,-7858.88,6058.3
2159,1.0,1.0,0.083,1.0,1.0,38.0,21.52,-19062.72,13973.92,9628.96,-220.02,-4763.88,5345.3
2178,0.885,1.0,0.0,1.0,1.0,39.56,25.92,-20218.72,13341.92,9516.96,1074.98,65.12,3354.3
2199,0.958,1.0,0.176,0.991,1.0,41.99,30.32,-21866.72,12037.92,8376.96,-1765.02,2517.12,1137.3
2219,1.0,0.862,0.0,1.0,1.0,44.75,35.07,-23622.72,11121.92,7328.96,-4030.02,3142.12,-896.7
2239,0.965,1.0,1.0,0.974,1.0,47.75,40.23,-25758.72,10129.92,7168.96,-3354.02,3454.12,-2462.7
2259,0.91,1.0,0.456,0.759,1.0,50.82,45.31,-27438.72,9357.92,7636.96,-2292.02,3184.12,-3257.7
2279,0.968,1.0,0.674,0.965,0.132,53.76,48.42,-28678.72,9401.92,8780.96,-2494.02,2800.12,-3401.7
2299,0.88,1.0,1.0,1.0,1.0,56.57,50.42,-29590.72,9401.92,9396.96,-3161.02,2763.12,-3392.7
2319,0.84,1.0,0.0,0.974,1.0,59.19,52.3,-30066.72,9069.92,9276.96,-2974.02,1832.12,-2822.7
2338,0.84,1.0,0.0,1.0,1.0,61.53,56.74,-29234.72,9281.92,7844.96,-1711.02,917.12,-2246.7
2358,0.807,1.0,0.145,0.965,1.0,63.62,62.06,-28806.72,9561.92,6856.96,-599.02,790.12,-1584.7
2378,0.632,1.0,0.955,0.673,1.0,65.79,66.67,-28850.72,9273.92,7564.96,-608.02,1219.12,-1429.7
2398,0.737,0.928,0.0,0.485,0.425,67.9,69.98,-29074.72,9177.92,8360.96,-256.02,1030.12,-1661.7
2418,0.765,1.0,0.0,0.253,1.0,69.91,73.79,-28386.72,9093.92,8156.96,1380.98,926.12,-1782.7
2439,0.672,0.871,0.269,1.0,1.0,71.77,77.88,-28362.72,9765.92,7816.96,3148.98,1413.12,-1361.7
2458,0.762,1.0,0.0,1.0,0.0,73.6,81.87,-28934.72,10269.92,7524.96,2942.98,2264.12,-1006.7
2478,0.853,1.0,0.0,1.0,0.0,75.32,85.45,-29378.72,11173.92,7124.96,1044.98,3149.12,-983.7
2499,0.647,1.0,0.0,1.0,0.0,77.04,89.24,-29790.72,10197.92,6688.96,-1142.02,2922.12,-866.7
2519,0.8,1.0,0.893,0.854,0.205,78.35,93.35,-29418.72,10297.92,6052.96,-327.02,1299.12,-340.7
2538,0.77,0.946,0.145,1.0,1.0,79.27,97.67,-28586.72,10697.92,5352.96,1267.98,103.12,-321.7
2559,0.767,1.0,0.0,0.948,1.0,80.11,101.56,-28686.72,10609.92,5840.96,781.98,-602.88,-516.7
2578,0.562,1.0,0.083,0.905,1.0,81.07,105.03,-28502.72,9709.92,6588.96,-1274.02,-734.88,-628.7
2599,0.637,0.739,0.0,0.862,1.0,82.19,109.12,-28278.72,8481.92,6896.96,-2617.02,-462.88,-431.7
2618,0.597,1.0,0.238,0.982,1.0,83.48,112.96,-28514.72,8117.92,7772.96,-1640.02,-70.88,291.3
2638,0.547,1.0,0.768,0.854,1.0,84.7,116.75,-28206.72,8377.92,7456.96,-160.02,369.12,581.3
2658,0.614,1.0,1.0,1.0,1.0,85.73,119.51,-28094.72,9465.92,7212.96,517.98,680.12,541.3
2678,0.587,1.0,0.519,0.536,1.0,86.55,121.5,-27754.72,10733.92,7200.96,285.98,926.12,-59.7
2699,0.637,1.0,0.0,0.948,1.0,87.38,123.52,-27650.72,10189.92,7076.96,-887.02,872.12,-1106.7
2718,0.657,1.0,0.0,0.922,1.0,88.08,126.13,-27970.72,9893.92,6388.96,-793.02,430.12,-1369.7
2738,0.685,1.0,0.363,0.665,1.0,88.6,129.16,-28354.72,10017.92,5432.96,25.98,380.12,-1593.7
2758,0.685,1.0,0.0,0.974,1.0,89.06,132.9,-28238.72,8873.92,4776.96,-640.02,242.12,-1558.7
2779,0.752,1.0,0.0,0.648,0.0,89.63,119.82,-28334.72,7533.92,5768.96,-1567.02,-146.88,-1137.7
2799,0.64,0.438,0.176,0.939,1.0,90.25,108.06,-28402.72,6885.92,6616.96,-1512.02,-450.88,-819.7
2818,0.597,1.0,0.643,1.0,1.0,90.68,97.61,-26854.72,6125.92,6548.96,-64.02,-606.88,-215.7
2838,0.682,1.0,0.488,0.493,1.0,90.94,86.59,-22050.72,6997.92,5908.96,1672.98,398.12,-373.7
2858,0.767,1.0,0.581,1.0,0.864,91.65,89.28,-22254.72,9873.92,7668.96,949.98,2931.12,-2698.7
2879,0.837,1.0,0.737,0.768,1.0,92.49,91.01,-24858.72,11365.92,7812.96,-1423.02,5307.12,-6710.7
2899,0.933,1.0,0.612,0.776,1.0,93.86,94.67,-28542.72,8441.92,7472.96,-1699.02,5251.12,-8423.7
2919,0.79,1.0,0.456,0.948,1.0,94.71,100.5,-31682.72,7649.92,6308.96,2103.98,2802.12,-8093.7
2938,0.81,1.0,0.0,1.0,0.0,95.09,89.36,-34166.72,7173.92,4864.96,4438.98,942.12,-6625.7
2958,0.78,1.0,0.0,1.0,1.0,95.31,78.34,-34678.72,6917.92,4588.96,2078.98,254.12,-4113.7
2978,0.822,1.0,0.176,0.965,1.0,95.49,67.73,-33178.72,6093.92,4988.96,-1698.02,169.12,-1206.7
