timestamp,flex_1,flex_2,flex_3,flex_4,flex_5,kalman_pitch,kalman_roll,acc_x,acc_y,acc_z,gyro_x,gyro_y,gyro_z
0,0.0,0.738,0.365,0.473,0.859,-9.22,-1.32,-3573.2,2012.24,22674.48,145.62,-1044.3,-651.94
20,0.0,0.745,0.396,0.47,1.0,-21.55,-4.78,-2553.2,1152.24,22282.48,-619.38,-842.3,-591.94
39,0.0,0.745,0.335,0.466,0.81,-28.31,-7.04,-1965.2,832.24,21934.48,180.62,1981.7,-627.94
58,0.0,0.71,0.396,0.466,0.859,-31.68,-7.88,-2377.2,1188.24,22562.48,1200.62,5348.7,-165.94
77,0.0,0.738,0.396,0.47,0.956,-33.52,-7.93,-2749.2,1832.24,22642.48,1068.62,7413.7,-26.94
96,0.0,0.773,0.457,0.494,1.0,-34.43,-7.74,-2797.2,2400.24,22842.48,-401.38,9609.7,899.06
115,0.0,0.724,0.335,0.427,0.907,-34.33,-8.64,-3245.2,904.24,23654.48,-2109.38,11370.7,1966.06
134,0.0,0.759,0.396,0.494,0.956,-33.3,-9.8,-4597.2,-71.76,24682.48,-2527.38,12465.7,2153.06
154,0.0,0.752,0.365,0.508,1.0,-31.63,-10.7,-6709.2,-519.76,26610.48,-1940.38,10453.7,2106.06
172,0.0,1.0,0.487,0.498,1.0,-29.85,-11.26,-9001.2,-279.76,27758.48,-1647.38,6776.7,2367.06
191,0.0,0.717,0.457,0.494,1.0,-29.06,-11.46,-6525.2,-99.76,29310.48,-490.38,4413.7,2756.06
210,0.0,0.745,0.457,0.487,1.0,-28.18,-11.8,-8741.2,-723.76,29306.48,-419.38,1920.7,4777.06
229,0.0,0.773,0.365,0.484,0.907,-27.69,-11.43,-8345.2,-3.76,31058.48,2708.62,-396.3,8510.06
248,0.0,0.752,0.365,0.48,0.907,-27.48,-10.77,-7221.2,-1015.76,31630.48,6588.62,-887.3,10817.06
267,0.0,0.773,0.365,0.484,0.907,-27.27,-9.04,-6745.2,1016.24,32138.48,11764.62,-56.3,13021.06
287,0.0,0.752,0.365,0.487,1.0,-26.75,-6.35,-7245.2,2848.24,32702.48,16316.62,1653.7,12853.06
307,0.0,0.759,0.518,0.459,0.761,-26.16,-4.04,-6641.2,3672.24,32358.48,14036.62,3223.7,10936.06
327,0.0,0.752,0.365,0.48,0.907,-25.73,-2.52,-6453.2,3964.24,32930.48,9217.62,2412.7,10018.06
348,0.0,0.794,0.426,0.494,0.907,-25.38,-1.31,-6817.2,3652.24,33930.48,8132.62,1288.7,10152.06
367,0.0,0.801,0.365,0.48,0.907,-25.42,-0.32,-6089.2,2268.24,34370.48,8691.62,-766.3,8970.06
387,0.0,0.773,0.396,0.48,0.907,-26.29,1.14,-4345.2,3392.24,32414.48,11157.62,-4058.3,6109.06
407,0.0,0.773,0.426,0.484,1.0,-27.45,2.38,-2513.2,3056.24,30238.48,10739.62,-3692.3,4915.06
427,0.0,0.773,0.365,0.498,1.0,-28.35,3.43,-1373.2,2688.24,27994.48,10561.62,86.7,4189.06
447,0.0,0.773,0.365,0.484,0.956,-28.46,4.44,-1189.2,1720.24,27458.48,12194.62,5776.7,2603.06
467,0.0,0.773,0.457,0.463,1.0,-27.8,5.49,-2141.2,1672.24,26958.48,13012.62,10605.7,62.06
487,0.0,0.78,0.365,0.487,0.907,-26.64,6.62,-3433.2,1584.24,27758.48,14145.62,12711.7,-697.94
507,0.0,0.773,0.396,0.484,0.81,-25.54,7.8,-4209.2,2236.24,27498.48,14085.62,12228.7,-615.94
527,0.0,0.738,0.396,0.47,1.0,-24.51,8.84,-4633.2,2684.24,27706.48,13017.62,11807.7,-577.94
547,0.0,0.759,0.7,0.47,0.761,-23.44,9.59,-4981.2,3120.24,28250.48,10818.62,11780.7,-2047.94
567,0.0,0.752,0.426,0.484,1.0,-22.43,9.99,-4729.2,2752.24,28018.48,9309.62,12270.7,-3462.94
587,0.0,0.759,0.335,0.487,0.81,-21.18,10.5,-4785.2,2668.24,27286.48,10516.62,14791.7,-4075.94
607,0.0,0.752,0.426,0.48,1.0,-19.56,11.21,-5805.2,3760.24,26694.48,10666.62,17345.7,-4958.94
627,0.0,0.745,0.274,0.516,1.0,-17.76,11.9,-6793.2,5200.24,26518.48,8727.62,18247.7,-6166.94
647,0.0,0.773,0.365,0.48,1.0,-16.08,12.26,-7205.2,5980.24,25854.48,5517.62,18102.7,-7341.94
667,0.0,0.773,0.396,0.48,0.956,-14.58,12.36,-7461.2,6436.24,24178.48,2657.62,18414.7,-8216.94
687,0.0,0.766,0.457,0.484,0.859,-13.13,12.3,-8161.2,6816.24,21454.48,-428.38,19931.7,-9359.94
706,0.002,0.787,0.365,0.48,0.907,-11.83,11.87,-9065.2,6236.24,20058.48,-3003.38,20614.7,-10568.94
726,0.002,0.759,0.396,0.48,1.0,-10.53,11.69,-10541.2,6976.24,18694.48,-4488.38,19702.7,-10415.94
744,0.002,0.787,0.365,0.494,1.0,-9.83,11.16,-10897.2,5980.24,17694.48,-5511.38,17012.7,-10035.94
763,0.004,0.787,0.761,0.494,0.859,-9.54,9.87,-11921.2,4064.24,17126.48,-5193.38,13302.7,-8812.94
782,0.002,0.759,0.365,0.484,0.859,-9.53,8.11,-12525.2,2668.24,17258.48,-3893.38,9397.7,-8812.94
802,0.008,0.801,0.396,0.484,0.859,-9.79,6.75,-12913.2,2784.24,16718.48,-1519.38,6986.7,-8951.94
821,0.004,0.78,0.426,0.48,0.907,-9.91,5.76,-13525.2,2400.24,17790.48,1414.62,4824.7,-6451.94
841,0.002,0.773,0.396,0.48,0.907,-9.85,5.64,-14273.2,3192.24,18518.48,4577.62,3420.7,-3505.94
861,0.006,0.78,0.396,0.48,0.761,-9.81,6.45,-14433.2,5264.24,19466.48,5585.62,2523.7,-2109.94
881,0.006,0.731,0.365,0.487,1.0,-9.56,7.52,-14905.2,6912.24,19938.48,4092.62,2556.7,-1410.94
901,0.008,0.78,0.396,0.417,1.0,-8.93,8.48,-17177.2,9532.24,24650.48,2442.62,1589.7,-578.94
921,0.004,0.773,0.365,0.516,0.956,-8.69,9.09,-15461.2,7852.24,21382.48,703.62,1448.7,-778.94
941,0.004,0.78,0.365,0.494,1.0,-8.23,9.51,-16021.2,7704.24,22682.48,667.62,1956.7,-370.94
961,0.006,0.871,0.304,0.508,1.0,-7.75,9.95,-16601.2,8056.24,23202.48,634.62,1252.7,106.06
981,0.002,0.78,0.274,0.473,0.712,-7.4,10.43,-16625.2,9060.24,23954.48,-112.38,626.7,394.06
1001,0.006,0.773,0.244,0.519,1.0,-7.13,10.9,-16553.2,10332.24,23946.48,-1904.38,241.7,273.06
1021,0.006,0.78,0.183,0.487,1.0,-6.88,11.12,-16633.2,9900.24,24506.48,-2582.38,6.7,-262.94
1041,0.004,0.801,0.457,0.473,1.0,-6.57,11.56,-16825.2,9992.24,25074.48,-906.38,232.7,-720.94
1060,0.0,0.752,0.365,0.473,1.0,-6.16,12.38,-16997.2,10844.24,25866.48,1223.62,750.7,-1198.94
1080,0.004,0.773,0.335,0.48,1.0,-5.94,13.47,-16929.2,12516.24,26538.48,1888.62,-140.3,-1247.94
1099,0.002,0.773,0.426,0.477,0.0,-5.82,14.55,-16701.2,13536.24,26194.48,774.62,-677.3,-1847.94
1118,0.002,0.78,0.365,0.48,1.0,-5.76,15.43,-16481.2,13736.24,26610.48,-293.38,-812.3,-3165.94
1137,0.0,0.787,0.426,0.487,0.81,-5.76,16.19,-16237.2,13180.24,27198.48,83.62,-989.3,-4375.94
1156,0.002,0.801,0.365,0.473,1.0,-5.76,17.07,-15929.2,13812.24,27642.48,687.62,-645.3,-5279.94
1175,0.0,0.773,0.365,0.47,1.0,-5.69,17.8,-15797.2,13508.24,27646.48,235.62,-68.3,-6369.94
1196,0.0,0.752,0.426,0.463,1.0,-5.59,18.26,-15481.2,12248.24,27838.48,-118.38,640.7,-7163.94
1214,0.0,0.752,0.426,0.48,0.907,-5.39,18.52,-15505.2,11576.24,28258.48,-603.38,1174.7,-7629.94
1234,0.002,0.759,0.457,0.473,0.907,-5.14,18.45,-15269.2,11200.24,28666.48,-2204.38,1941.7,-7930.94
1253,0.002,0.773,0.426,0.487,1.0,-4.71,18.02,-15357.2,10532.24,28370.48,-4404.38,3132.7,-8573.94
1273,0.0,0.773,0.396,0.48,1.0,-4.08,17.34,-15745.2,10612.24,27758.48,-6467.38,4202.7,-9710.94
1293,0.0,0.752,0.426,0.48,0.907,-3.35,16.34,-15957.2,9372.24,27074.48,-7887.38,4774.7,-11461.94
1313,0.0,0.773,0.365,0.438,1.0,-2.46,15.29,-16705.2,8092.24,26278.48,-7332.38,5024.7,-13280.94
1332,0.0,0.759,0.335,0.438,0.712,-1.57,14.43,-17405.2,7120.24,25874.48,-5627.38,4442.7,-14359.94
1352,0.0,0.745,0.365,0.48,0.859,-0.78,13.63,-17941.2,5856.24,25298.48,-3665.38,2937.7,-14920.94
1372,0.0,0.731,0.365,0.473,0.615,-0.22,13.02,-18069.2,5004.24,25074.48,-1397.38,1317.7,-15142.94
1391,0.0,0.752,0.365,0.463,1.0,0.2,12.57,-18065.2,4608.24,24962.48,141.62,441.7,-15623.94
1412,0.0,0.745,0.365,0.48,1.0,0.51,12.23,-18437.2,4064.24,25150.48,1617.62,-716.3,-16260.94
1432,0.0,0.745,0.457,0.456,0.859,0.74,12.19,-18325.2,4172.24,24754.48,3389.62,-1223.3,-17091.94
1452,0.0,0.759,0.365,0.473,0.663,0.85,12.33,-18161.2,4324.24,24906.48,4522.62,-1775.3,-18161.94
1472,0.0,0.759,0.365,0.466,0.663,0.75,12.46,-17637.2,3628.24,24790.48,5546.62,-2511.3,-19168.94
1492,0.0,0.752,0.426,0.473,1.0,0.48,12.62,-17741.2,2720.24,24706.48,7324.62,-3926.3,-20198.94
1512,0.0,0.773,0.426,0.459,0.859,-0.08,12.91,-16945.2,3052.24,24362.48,7864.62,-5019.3,-21354.94
1532,0.0,0.752,0.457,0.466,1.0,-0.88,12.79,-16345.2,2124.24,25134.48,6590.62,-5898.3,-22441.94
1552,0.0,0.759,0.365,0.473,1.0,-1.81,12.1,-16317.2,304.24,26310.48,4953.62,-6885.3,-22587.94
1572,0.0,0.71,0.365,0.473,1.0,-2.55,10.61,-17657.2,-3095.76,27706.48,2822.62,-7340.3,-21723.94
1591,0.0,0.759,0.365,0.466,1.0,-2.86,8.04,-21217.2,-12259.76,31358.48,810.62,-7114.3,-18613.94
1610,0.002,0.633,0.396,0.459,0.907,-2.92,6.32,-19489.2,-9755.76,28758.48,5899.62,-4582.3,-7679.94
1629,0.002,0.738,0.457,0.466,0.81,-2.34,5.52,-18925.2,-2907.76,29090.48,5677.62,-81.3,-1254.94
1648,0.002,0.731,0.365,0.473,1.0,-1.54,4.61,-19029.2,1192.24,28526.48,284.62,1270.7,-2872.94
1668,0.0,0.752,0.396,0.466,0.029,-0.62,2.74,-19229.2,-631.76,26946.48,-4004.38,1691.7,-6256.94
1687,0.004,0.745,0.365,0.47,1.0,0.35,0.91,-20401.2,-3087.76,27354.48,-1920.38,1366.7,-7323.94
1707,0.0,0.759,0.457,0.494,1.0,1.19,-0.36,-21485.2,-4619.76,28290.48,2789.62,114.7,-5190.94
1726,0.006,0.815,0.365,0.47,1.0,1.98,-0.89,-21113.2,-2387.76,27894.48,5684.62,-148.3,-1824.94
1745,0.004,0.745,0.365,0.452,0.615,2.73,-1.19,-20073.2,340.24,27298.48,4221.62,478.7,104.06
1765,0.002,0.752,0.396,0.466,1.0,3.53,-1.98,-19785.2,652.24,26554.48,515.62,1125.7,-396.94
1785,0.004,0.745,0.396,0.47,1.0,4.39,-3.09,-20193.2,648.24,26498.48,-1915.38,1212.7,-1162.94
1805,0.004,0.808,0.365,0.463,1.0,5.22,-4.13,-20597.2,392.24,26306.48,-1390.38,723.7,-704.94
1825,0.006,0.738,0.365,0.463,1.0,5.94,-4.73,-20789.2,1056.24,26662.48,374.62,16.7,430.06
1845,0.008,0.752,0.457,0.456,0.663,6.48,-4.92,-20321.2,2456.24,26642.48,1285.62,-592.3,1309.06
1865,0.0,0.745,0.487,0.466,0.078,6.92,-5.13,-19749.2,2692.24,26750.48,775.62,-481.3,1241.06
1885,0.0,0.787,0.396,0.466,0.859,7.36,-5.3,-19685.2,2824.24,26530.48,829.62,-319.3,1053.06
1905,0.002,0.752,0.365,0.452,1.0,7.91,-5.31,-19153.2,3568.24,26006.48,918.62,965.7,945.06
1925,0.0,0.745,0.365,0.466,1.0,8.59,-5.36,-19133.2,4192.24,25690.48,-272.38,1989.7,382.06
1945,0.002,0.752,0.365,0.456,1.0,9.24,-5.65,-19821.2,3620.24,25930.48,-1227.38,1162.7,570.06
1965,0.004,0.752,0.365,0.48,0.517,9.67,-5.96,-20065.2,3316.24,25850.48,-1105.38,-519.3,1248.06
1985,0.004,0.752,0.365,0.452,0.907,9.84,-6.01,-19441.2,3868.24,26086.48,-176.38,-1357.3,1606.06
2005,0.011,0.745,0.365,0.463,1.0,9.99,-5.81,-18613.2,4728.24,25834.48,357.62,-477.3,1517.06
2025,0.0,0.752,0.426,0.463,1.0,10.33,-5.67,-19197.2,5212.24,26462.48,-606.38,341.7,775.06
2045,0.004,0.773,0.426,0.473,1.0,10.58,-5.72,-19481.2,4204.24,26654.48,-642.38,-487.3,682.06
2065,0.0,0.738,0.426,0.48,1.0,10.74,-5.55,-19285.2,4388.24,26622.48,605.62,-831.3,955.06
2085,0.006,0.787,0.396,0.452,1.0,10.82,-5.2,-19285.2,4976.24,26738.48,1039.62,-1264.3,1155.06
2105,0.004,0.724,0.518,0.448,0.81,10.85,-4.78,-19009.2,5464.24,27118.48,1136.62,-1234.3,851.06
2125,0.004,0.731,0.335,0.459,0.907,10.89,-4.44,-18885.2,4904.24,27470.48,1289.62,-894.3,385.06
2145,0.002,0.731,0.365,0.456,1.0,11.06,-4.09,-18749.2,4920.24,26974.48,1409.62,-3.3,394.06
2165,0.0,0.731,0.122,0.466,1.0,11.36,-3.77,-19169.2,5292.24,26914.48,761.62,539.7,162.06
2184,0.004,0.745,0.396,0.456,0.859,11.64,-3.56,-19133.2,5044.24,26774.48,318.62,432.7,-4.94
2205,0.002,0.752,0.396,0.456,1.0,11.83,-3.46,-19285.2,4604.24,27010.48,200.62,-221.3,43.06
2225,0.0,0.738,0.426,0.466,0.859,11.92,-3.32,-19201.2,4680.24,26382.48,303.62,-1010.3,338.06
2245,0.0,0.745,0.365,0.463,0.517,11.93,-3.18,-19105.2,4700.24,26802.48,286.62,-1197.3,-40.94
2265,0.002,0.731,0.365,0.459,1.0,12.01,-2.97,-18645.2,4484.24,26886.48,1071.62,-214.3,-398.94
2285,0.004,0.745,0.518,0.47,1.0,12.25,-2.78,-19173.2,4544.24,27102.48,934.62,347.7,-397.94
2305,0.0,0.738,0.396,0.466,1.0,12.48,-2.62,-19329.2,4820.24,26850.48,317.62,109.7,-50.94
2325,0.002,0.738,0.365,0.466,0.907,12.66,-2.63,-19205.2,5104.24,26950.48,-1117.38,71.7,-71.94
2345,0.0,0.724,0.365,0.463,0.712,12.82,-2.83,-19153.2,4588.24,26626.48,-1865.38,-149.3,-254.94
2364,0.0,0.731,0.457,0.47,0.615,12.98,-3.02,-19309.2,3948.24,26794.48,-1306.38,-154.3,-376.94
2383,0.0,0.787,0.365,0.463,0.0,13.1,-3.09,-19289.2,3548.24,26990.48,27.62,-257.3,-397.94
2403,0.0,0.78,0.396,0.466,1.0,13.25,-2.89,-19281.2,4036.24,26966.48,1326.62,-85.3,147.06
2423,0.004,0.738,0.365,0.459,1.0,13.41,-2.58,-18989.2,5236.24,26726.48,698.62,313.7,147.06
2443,0.002,0.886,0.274,0.459,0.859,13.6,-2.57,-19425.2,4828.24,26978.48,-860.38,150.7,-288.94
2463,0.006,0.689,0.487,0.456,0.956,13.66,-2.68,-19273.2,3856.24,27034.48,-558.38,-553.3,-77.94
2482,0.004,0.822,0.365,0.459,1.0,13.72,-2.59,-19149.2,4108.24,27038.48,465.62,-324.3,-73.94
2501,0.002,0.731,0.365,0.466,0.81,13.88,-2.32,-18977.2,4828.24,26686.48,825.62,432.7,-19.94
2521,0.004,0.654,0.365,0.466,1.0,14.09,-2.17,-19177.2,4760.24,26614.48,122.62,666.7,-62.94
2542,0.006,0.822,0.304,0.456,0.712,14.23,-2.15,-19385.2,4440.24,26774.48,-368.38,-29.3,-108.94
2561,0.008,0.745,0.304,0.466,1.0,14.28,-2.11,-19377.2,4316.24,26970.48,-182.38,-436.3,-131.94
2580,0.002,0.752,0.365,0.463,0.761,14.33,-2.0,-19405.2,4376.24,27154.48,314.62,-460.3,28.06
2599,0.008,0.71,0.396,0.452,1.0,14.4,-1.84,-19105.2,4644.24,26866.48,354.62,-23.3,101.06
2620,0.011,0.731,0.365,0.47,0.859,14.55,-1.74,-19037.2,4532.24,26510.48,-4.38,493.7,-42.94
2640,0.006,0.717,0.365,0.459,1.0,14.69,-1.74,-19149.2,4196.24,26538.48,-227.38,391.7,-194.94
2659,0.013,0.71,0.457,0.445,0.907,14.77,-1.68,-19109.2,4316.24,26582.48,24.62,25.7,-13.94
2680,0.004,0.724,0.518,0.459,0.615,14.85,-1.57,-19089.2,4608.24,26346.48,26.62,92.7,139.06
2699,0.004,0.71,0.365,0.459,0.907,14.94,-1.53,-19257.2,4420.24,26518.48,-260.38,-8.3,52.06
2720,0.002,0.759,0.457,0.47,0.859,14.95,-1.5,-19285.2,4124.24,26590.48,19.62,-489.3,206.06
2740,0.004,0.717,0.396,0.463,1.0,14.92,-1.38,-19133.2,4436.24,26754.48,253.62,-576.3,245.06
2760,0.006,0.71,0.213,0.48,1.0,14.96,-1.26,-19085.2,4604.24,26714.48,101.62,33.7,135.06
2780,0.008,0.724,0.365,0.452,1.0,15.09,-1.18,-19337.2,4464.24,26770.48,-69.38,326.7,112.06
2800,0.006,0.717,0.335,0.459,0.859,15.18,-1.12,-19181.2,4548.24,26610.48,-245.38,218.7,152.06
2820,0.008,0.71,0.365,0.456,0.761,15.23,-1.08,-19305.2,4464.24,26822.48,-304.38,-70.3,45.06
2840,0.01,0.773,0.335,0.452,1.0,15.25,-0.97,-19293.2,4516.24,26766.48,80.62,-263.3,164.06
2860,0.006,0.752,0.335,0.448,0.42,15.26,-0.8,-19213.2,4656.24,26790.48,327.62,-155.3,202.06
2880,0.01,0.717,0.365,0.466,0.81,15.26,-0.66,-19341.2,4796.24,27086.48,74.62,-340.3,313.06
2899,0.01,0.745,0.335,0.452,0.615,15.23,-0.54,-18897.2,4936.24,26798.48,-334.38,-83.3,138.06
2920,0.008,0.731,0.548,0.456,0.859,15.31,-0.48,-19069.2,4812.24,26810.48,-558.38,471.7,-327.94
2940,0.008,0.724,0.609,0.463,1.0,15.41,-0.47,-19477.2,4256.24,26878.48,-191.38,185.7,-100.94
2959,0.008,0.745,0.244,0.47,1.0,15.4,-0.35,-19093.2,4440.24,26538.48,253.62,-165.3,294.06
2980,0.006,0.724,0.7,0.456,0.859,15.42,-0.21,-18957.2,4804.24,26374.48,-14.38,140.7,135.06
