timestamp,flex_1,flex_2,flex_3,flex_4,flex_5,kalman_pitch,kalman_roll,acc_x,acc_y,acc_z,gyro_x,gyro_y,gyro_z
0,0.95,0.0,0.0,0.0,0.938,34.72,118.63,-162.72,-658.08,16068.96,1013.98,1593.12,756.3
19,1.0,0.0,0.0,0.004,1.0,1.9,52.07,-426.72,-698.08,16492.96,913.98,1883.12,434.3
40,0.9,0.0,0.0,0.407,0.0,-12.52,23.7,-114.72,-542.08,16596.96,699.98,1746.12,194.3
59,0.807,0.0,0.0,0.0,1.0,-20.45,7.97,-534.72,-458.08,16696.96,830.98,1442.12,-2.7
80,0.848,0.0,0.176,0.064,1.0,-25.54,-2.0,-518.72,-454.08,16936.96,861.98,1317.12,-259.7
100,0.925,0.0,0.643,0.0,1.0,-29.38,-8.92,-298.72,-154.08,16900.96,450.98,930.12,-317.7
119,1.0,0.0,0.0,0.227,0.0,-32.18,-14.7,-506.72,-718.08,16560.96,-754.02,883.12,8.3
140,0.84,0.0,0.145,0.124,1.0,-34.26,-19.56,65.28,-1490.08,16932.96,-2001.02,1325.12,446.3
160,0.88,0.0,0.0,0.124,0.0,-35.34,-24.65,-238.72,-3842.08,16456.96,-3559.02,2550.12,1404.3
180,1.0,0.0,0.0,0.716,0.0,-34.98,-29.34,-2622.72,-6630.08,17980.96,-5721.02,3191.12,3134.3
200,1.0,0.0,0.269,0.0,1.0,-34.59,-34.1,-2826.72,-7598.08,17288.96,-8417.02,3130.12,6417.3
220,0.614,0.081,0.83,0.158,1.0,-34.27,-38.33,-2890.72,-7710.08,18396.96,-10609.02,2421.12,9647.3
240,0.539,0.0,0.0,0.141,0.498,-33.95,-42.87,-2294.72,-9914.08,17864.96,-13121.02,2391.12,13124.3
260,0.885,0.024,1.0,0.064,0.0,-33.37,-47.32,-1974.72,-11490.08,17860.96,-14374.02,4093.12,15698.3
280,0.607,0.043,0.114,0.0,1.0,-32.17,-51.57,-3098.72,-14082.08,18832.96,-15450.02,6241.12,19105.3
300,0.376,0.043,0.0,0.0,1.0,-30.27,-55.73,-3242.72,-14358.08,18172.96,-16323.02,11750.12,22860.3
320,0.329,0.0,0.02,0.012,0.059,-27.89,-60.32,-4074.72,-15110.08,17464.96,-20375.02,15182.12,24396.3
340,0.351,0.0,0.893,0.158,1.0,-25.25,-65.38,-6434.72,-16474.08,17904.96,-26022.02,15344.12,27113.3
360,0.492,0.1,0.176,0.0,0.791,-22.66,-70.96,-8534.72,-18790.08,16172.96,-29656.02,13816.12,31364.3
380,0.822,0.231,0.0,0.004,1.0,-20.72,-76.4,-8070.72,-19406.08,14884.96,-30007.02,10876.12,32822.3
400,0.564,0.166,0.051,0.176,0.0,-19.0,-81.61,-8778.72,-20338.08,13144.96,-29030.02,9539.12,32822.3
420,0.517,0.006,0.176,0.399,0.0,-17.68,-86.81,-8974.72,-19414.08,11072.96,-29589.02,7444.12,32822.3
440,0.432,0.0,0.0,0.098,1.0,-16.56,-91.89,-10030.72,-19982.08,9952.96,-30043.02,5474.12,32822.3
460,0.482,0.514,0.456,0.201,1.0,-15.91,-96.93,-10526.72,-19462.08,8960.96,-31241.02,2234.12,32822.3
480,0.404,0.0,1.0,0.098,1.0,-15.82,-101.65,-10486.72,-17922.08,7836.96,-30140.02,-1349.88,32822.3
500,0.492,0.401,0.893,0.09,0.0,-16.04,-105.34,-11042.72,-13106.08,8424.96,-25760.02,-3750.88,32822.3
520,0.587,0.006,0.706,0.115,1.0,-16.3,-108.21,-12182.72,-11270.08,7516.96,-20506.02,-5615.88,32822.3
540,0.524,0.128,0.176,0.304,0.0,-17.01,-110.74,-11038.72,-9770.08,6624.96,-18219.02,-7388.88,32822.3
560,0.564,0.043,0.643,0.124,0.0,-17.5,-112.83,-11826.72,-5174.08,7116.96,-16336.02,-7061.88,32822.3
580,0.371,0.062,0.456,0.133,1.0,-17.05,-114.36,-13774.72,-922.08,7564.96,-13396.02,-5904.88,32822.3
600,0.467,0.0,0.083,0.339,1.0,-16.25,-115.55,-14402.72,897.92,7328.96,-10254.02,-6675.88,32822.3
620,0.527,0.382,0.02,0.244,1.0,-16.15,-116.53,-12806.72,3313.92,7196.96,-6364.02,-6470.88,32822.3
640,0.452,0.128,0.0,0.0,0.498,-14.32,-98.91,-13326.72,7741.92,6848.96,-2442.02,-4182.88,32822.3
660,0.444,0.297,0.0,0.313,1.0,-12.73,-84.68,-13558.72,10369.92,6148.96,-1698.02,-1284.88,32822.3
680,0.489,0.382,0.612,0.0,1.0,-10.6,-72.63,-15214.72,14033.92,5684.96,-5481.02,620.12,32656.3
700,0.522,0.231,0.0,0.107,0.0,-8.92,-62.89,-15246.72,16113.92,7812.96,-10115.02,-493.88,22421.3
720,0.737,0.457,0.0,0.167,0.425,-6.98,-53.76,-17666.72,18497.92,6808.96,-13634.02,-1464.88,9306.3
740,0.509,0.024,0.0,0.09,1.0,-5.02,-46.27,-18058.72,16373.92,9756.96,-15438.02,-3913.88,4023.3
760,0.479,0.373,0.0,0.09,0.0,-1.94,-38.05,-21482.72,16021.92,9536.96,-8938.02,-2128.88,959.3
780,0.557,0.119,0.643,0.21,1.0,1.99,-29.61,-23674.72,14129.92,9104.96,-6028.02,-989.88,-2237.7
800,0.617,0.128,0.0,0.073,1.0,6.51,-20.59,-25778.72,12721.92,8028.96,-4209.02,166.12,-4273.7
820,0.534,0.09,1.0,0.107,0.791,11.36,-11.24,-26702.72,11041.92,7736.96,-2575.02,541.12,-4533.7
840,0.517,0.043,0.176,0.115,0.0,16.08,-2.43,-27426.72,11485.92,7952.96,-1467.02,1475.12,-4115.7
860,0.509,0.119,0.488,0.253,1.0,20.44,6.38,-27454.72,12157.92,7572.96,-97.02,1526.12,-3186.7
880,0.587,0.128,0.0,0.081,1.0,24.2,15.25,-26666.72,13593.92,6892.96,1620.98,1468.12,-2671.7
900,0.562,0.024,0.0,0.244,0.0,27.99,23.58,-25770.72,13393.92,6912.96,746.98,3148.12,-4225.7
920,0.472,0.156,0.176,0.15,0.0,31.8,31.55,-25414.72,14277.92,6808.96,1446.98,6205.12,-6420.7
940,0.474,0.128,1.0,0.0,0.0,35.88,38.54,-24770.72,13365.92,7640.96,-136.02,8252.12,-10436.7
960,0.519,0.128,0.114,0.0,1.0,40.06,43.88,-25298.72,12869.92,9060.96,-3025.02,9143.12,-13634.7
980,0.442,0.156,0.0,0.467,1.0,44.15,47.57,-25094.72,11157.92,10764.96,-1165.02,8341.12,-14759.7
1000,0.544,0.081,1.0,0.158,0.0,48.22,50.54,-25886.72,9609.92,11440.96,5262.98,8051.12,-15048.7
1020,0.507,0.175,0.114,0.107,1.0,52.16,51.95,-26786.72,7653.92,11668.96,10384.98,7748.12,-15377.7
1040,0.619,0.128,0.0,0.107,1.0,56.02,52.25,-28114.72,6205.92,11968.96,13444.98,9004.12,-15017.7
1060,0.497,0.09,0.0,0.218,1.0,59.79,51.59,-29550.72,4669.92,11488.96,17051.98,10052.12,-12452.7
1080,0.396,0.0,0.176,0.0,1.0,64.06,49.79,-29502.72,4721.92,9252.96,22831.98,13346.12,-8678.7
1100,0.552,0.222,0.0,0.047,0.059,68.31,45.71,-29490.72,4353.92,6232.96,27638.98,16338.12,-6586.7
1120,0.645,0.147,0.737,0.613,1.0,72.35,40.06,-30098.72,4781.92,3008.96,27775.98,19159.12,-6297.7
1140,0.635,0.09,1.0,0.27,0.0,76.18,33.46,-32058.72,5301.92,824.96,24733.98,20530.12,-5297.7
1160,0.752,0.269,0.0,0.073,1.0,79.11,27.75,-33742.72,2845.92,772.96,23600.98,16308.12,-2634.7
1180,0.645,0.0,0.114,0.227,1.0,80.59,22.86,-32822.72,13.92,-2051.04,26605.98,11451.12,1540.3
1200,0.772,0.382,0.0,0.407,0.498,81.23,18.4,-31958.72,-3098.08,-7091.04,29376.98,11019.12,3870.3
1220,0.715,0.222,0.0,0.0,1.0,81.63,13.44,-32618.72,-5802.08,-10007.04,24648.98,11789.12,4519.3
1240,0.76,0.532,0.0,0.279,0.0,81.76,7.43,-32066.72,-6094.08,-10895.04,16819.98,11016.12,6296.3
1260,0.722,0.429,0.955,0.519,1.0,81.4,1.02,-32298.72,-6334.08,-11743.04,12883.98,8300.12,11918.3
1280,0.848,0.0,0.0,0.399,1.0,80.5,-5.39,-30578.72,-4882.08,-12827.04,13103.98,5747.12,17003.3
1300,0.629,0.184,0.02,0.244,1.0,79.13,-12.02,-27802.72,-4250.08,-14091.04,11071.98,4544.12,20048.3
1320,0.812,0.222,1.0,0.115,0.0,77.6,-19.64,-26050.72,-2158.08,-13635.04,3983.98,3862.12,20120.3
1340,0.737,0.373,0.145,0.27,1.0,75.83,-28.07,-25894.72,-882.08,-11715.04,-3263.02,1057.12,19622.3
1360,0.737,0.26,0.332,0.399,1.0,73.66,-36.65,-24850.72,857.92,-9671.04,-5832.02,-2567.88,20914.3
1380,0.657,0.015,0.176,0.098,1.0,71.21,-44.91,-23742.72,2469.92,-9035.04,-4669.02,-4684.88,22366.3
1400,0.76,0.363,0.581,0.304,0.864,68.47,-53.3,-21022.72,3533.92,-7351.04,-7178.02,-5814.88,21579.3
1420,0.677,0.833,0.0,0.321,1.0,65.93,-61.47,-20322.72,3709.92,-5799.04,-8599.02,-5342.88,19191.3
1440,0.757,0.222,0.0,0.279,0.0,63.8,-70.21,-20982.72,5229.92,-3819.04,-13352.02,-5640.88,15885.3
1460,0.645,0.081,0.238,0.356,0.0,61.59,-79.29,-20238.72,6161.92,-2591.04,-17134.02,-7101.88,13491.3
1480,0.672,0.542,0.394,0.339,1.0,59.21,-88.5,-19086.72,7225.92,-1911.04,-18860.02,-7959.88,11463.3
1500,0.727,0.222,0.0,0.304,1.0,56.99,-77.73,-18710.72,8057.92,-631.04,-19185.02,-8351.88,10440.3
1520,0.732,1.0,0.768,0.399,1.0,55.29,-67.44,-18666.72,8593.92,1192.96,-18219.02,-7656.88,9810.3
1540,0.697,0.551,0.394,0.073,0.791,54.08,-57.8,-19306.72,8641.92,3092.96,-19110.02,-8964.88,8066.3
1560,0.702,0.57,0.0,0.261,1.0,52.96,-49.73,-21010.72,9697.92,4540.96,-21393.02,-13078.88,6003.3
1580,0.687,0.852,0.799,0.073,0.938,51.31,-42.7,-20518.72,10553.92,4536.96,-23498.02,-15705.88,4475.3
1600,0.697,0.495,0.0,0.442,1.0,48.4,-36.33,-17178.72,12457.92,2416.96,-25789.02,-14950.88,2224.3
1620,0.827,0.608,0.0,0.442,1.0,45.5,-28.82,-14982.72,8613.92,3620.96,-26541.02,-14079.88,1145.3
1640,0.697,1.0,0.145,0.536,0.0,45.58,-30.98,-17186.72,7441.92,9212.96,-23088.02,-15016.88,2755.3
1660,0.765,1.0,0.581,0.948,1.0,45.78,-27.19,-16246.72,8621.92,8864.96,-15862.02,-11744.88,4921.3
1680,0.765,1.0,0.207,0.476,0.0,44.69,-25.2,-15830.72,8885.92,10860.96,-11060.02,-12405.88,5246.3
1700,0.755,1.0,0.207,0.407,1.0,44.22,-22.98,-14966.72,8685.92,10592.96,-8720.02,-6775.88,3867.3
1720,0.787,1.0,0.737,0.957,0.938,41.24,-22.67,-11666.72,7657.92,12020.96,-11477.02,-2110.88,1834.3
1740,0.835,1.0,0.986,0.965,0.791,40.28,-22.71,-12330.72,7477.92,12092.96,-12856.02,7154.12,2402.3
1760,1.0,1.0,0.861,1.0,0.571,40.33,-23.01,-12766.72,7445.92,12772.96,-14806.02,11737.12,-1811.7
1780,0.963,1.0,1.0,1.0,1.0,42.11,-26.31,-15462.72,5321.92,11148.96,-21489.02,10501.12,-6365.7
1800,0.873,1.0,1.0,1.0,0.938,43.2,-30.8,-16478.72,1637.92,11716.96,-23441.02,10084.12,-7794.7
1820,0.99,1.0,0.332,1.0,0.645,44.62,-33.59,-20662.72,1445.92,14452.96,-18910.02,8027.12,-6678.7
1840,1.0,1.0,0.986,0.939,1.0,46.71,-33.76,-20802.72,4665.92,11976.96,-3585.02,6755.12,-7826.7
1860,1.0,1.0,0.0,1.0,1.0,49.8,-26.25,-23850.72,12025.92,9724.96,7806.98,11970.12,-13940.7
1880,1.0,1.0,0.674,0.957,0.0,53.8,-18.51,-30790.72,16397.92,7716.96,4197.98,20565.12,-23698.7
1900,0.933,1.0,0.176,1.0,1.0,58.81,-12.97,-40866.72,17837.92,5600.96,-12686.02,27132.12,-32030.7
1920,1.0,1.0,0.0,1.0,1.0,63.74,-10.32,-45270.72,16669.92,9760.96,-22852.02,26485.12,-32712.7
1940,0.9,1.0,0.83,1.0,1.0,66.95,-8.57,-45270.72,16353.92,15628.96,-17610.02,17523.12,-26813.7
1960,0.858,0.833,0.0,1.0,1.0,68.44,-3.93,-45270.72,15937.92,13540.96,-167.02,5884.12,-17906.7
1980,0.858,1.0,0.674,1.0,0.0,69.6,-9.08,-45270.72,6593.92,5740.96,10637.98,96.12,-9383.7
2000,0.765,1.0,0.02,0.965,1.0,70.25,-13.77,-45270.72,2933.92,132.96,9767.98,888.12,1506.3
2020,0.878,1.0,0.0,1.0,1.0,70.69,-20.01,-39182.72,5141.92,-1119.04,3340.98,1039.12,8542.3
2040,0.782,1.0,0.051,1.0,1.0,70.34,-26.71,-31814.72,5493.92,472.96,-1325.02,-3210.88,13299.3
2060,0.73,1.0,0.0,1.0,1.0,69.13,-33.04,-26350.72,6021.92,2080.96,16.98,-8409.88,16419.3
2080,0.787,1.0,0.706,1.0,0.0,67.4,-21.08,-21958.72,8165.92,3504.96,6164.98,-11544.88,17195.3
2100,0.82,1.0,0.55,1.0,1.0,65.42,-9.76,-19222.72,9541.92,3800.96,10318.98,-10637.88,15640.3
2120,0.73,1.0,0.238,0.759,1.0,63.45,0.13,-17882.72,11029.92,3880.96,8375.98,-7890.88,12455.3
2140,0.715,0.758,0.706,0.785,1.0,62.03,8.35,-17630.72,11529.92,4200.96,1413.98,-4033.88,8036.3
2160,0.732,1.0,0.0,1.0,0.0,61.52,15.2,-18502.72,11233.92,4900.96,-4994.02,-942.88,3430.3
2180,0.765,1.0,0.176,1.0,1.0,61.8,21.17,-19666.72,11085.92,5816.96,-6890.02,1333.12,-592.7
2200,0.8,1.0,0.768,0.957,0.0,62.76,27.16,-21882.72,10325.92,6396.96,-5474.02,2114.12,-3271.7
2220,0.747,1.0,1.0,1.0,0.0,64.05,32.48,-24014.72,10093.92,7492.96,-3348.02,2306.12,-4910.7
2240,0.75,1.0,1.0,1.0,1.0,65.5,37.71,-26286.72,9917.92,7684.96,-1770.02,2700.12,-5926.7
2260,0.757,1.0,0.955,1.0,1.0,67.0,43.73,-27618.72,9741.92,6800.96,-1428.02,3596.12,-6288.7
2280,0.805,0.862,0.55,1.0,1.0,68.74,49.48,-29642.72,9353.92,7112.96,-1774.02,4654.12,-6278.7
2300,0.725,1.0,0.55,0.948,1.0,70.48,55.33,-31138.72,8985.92,7104.96,-1941.02,4752.12,-5801.7
2320,0.687,1.0,0.0,0.733,1.0,71.97,61.4,-31278.72,9109.92,6584.96,-1097.02,3962.12,-4843.7
2340,0.775,1.0,0.737,1.0,0.205,73.25,67.09,-31286.72,9637.92,6452.96,307.98,3424.12,-3945.7
2360,0.767,1.0,0.145,0.562,1.0,74.32,72.67,-31334.72,9961.92,5996.96,528.98,2967.12,-3336.7
2380,0.77,1.0,0.083,1.0,1.0,75.2,78.53,-30978.72,9349.92,5424.96,-560.02,2116.12,-2689.7
2400,0.8,0.918,0.051,1.0,1.0,75.95,84.22,-30750.72,9057.92,5696.96,-931.02,1242.12,-1729.7
2419,0.747,1.0,0.114,1.0,1.0,76.53,89.9,-30002.72,8881.92,5844.96,-76.02,136.12,-657.7
2440,0.74,1.0,0.0,1.0,1.0,76.81,95.46,-28850.72,9265.92,5364.96,1437.98,-818.88,398.3
2460,0.725,1.0,1.0,0.751,0.0,76.95,100.54,-28074.72,9941.92,5192.96,2190.98,-902.88,758.3
2480,0.82,1.0,0.0,0.648,0.498,77.03,105.25,-27622.72,10165.92,5004.96,1478.98,-825.88,573.3
2500,0.89,1.0,0.488,1.0,1.0,77.06,109.71,-26742.72,10141.92,4844.96,571.98,-628.88,157.3
2520,0.73,1.0,0.0,1.0,0.0,77.21,114.0,-26986.72,9985.92,5004.96,541.98,-143.88,-231.7
2539,0.762,1.0,0.332,1.0,0.0,77.44,118.23,-27382.72,9633.92,5096.96,281.98,70.12,-653.7
2559,0.843,1.0,0.0,1.0,1.0,77.66,122.33,-27390.72,9493.92,5080.96,-106.02,3.12,-857.7
2580,0.782,1.0,0.145,1.0,0.0,77.96,126.12,-27826.72,9605.92,5264.96,-88.02,322.12,-1035.7
2600,0.797,0.862,0.955,1.0,0.938,78.31,129.67,-28294.72,9469.92,5516.96,-505.02,364.12,-1307.7
2620,0.762,1.0,0.176,1.0,0.352,78.61,133.23,-28362.72,9193.92,5376.96,-991.02,147.12,-1393.7
2640,0.752,1.0,0.674,0.931,1.0,78.97,136.74,-28454.72,8961.92,5704.96,-695.02,122.12,-1241.7
2660,0.777,1.0,0.0,0.957,1.0,79.35,140.07,-28946.72,8997.92,5860.96,-199.02,169.12,-1097.7
2680,0.79,1.0,0.269,1.0,0.205,79.68,143.36,-28962.72,8869.92,5832.96,-335.02,-47.88,-957.7
2700,0.737,1.0,1.0,1.0,0.0,80.01,146.61,-28830.72,8677.92,5980.96,-301.02,-218.88,-735.7
2720,0.627,1.0,0.55,0.948,1.0,80.3,149.76,-28758.72,8741.92,5884.96,220.98,-241.88,-341.7
2740,0.752,1.0,0.176,1.0,1.0,80.58,152.64,-28606.72,8933.92,5944.96,595.98,-146.88,-95.7
2759,0.752,0.664,0.0,1.0,1.0,80.82,155.33,-28290.72,9001.92,5844.96,445.98,-91.88,12.3
2779,0.752,0.928,0.0,0.957,1.0,81.0,157.89,-27890.72,9141.92,5520.96,330.98,95.12,84.3
2799,0.727,1.0,0.0,1.0,1.0,81.16,160.36,-27822.72,9229.92,5320.96,473.98,358.12,98.3
2819,0.725,1.0,0.332,0.905,1.0,81.32,162.67,-27802.72,9233.92,5232.96,89.98,460.12,-127.7
2840,0.68,0.73,0.674,1.0,0.0,81.44,164.92,-27782.72,9145.92,4952.96,-471.02,579.12,-305.7
2860,0.757,1.0,1.0,0.965,1.0,81.6,166.89,-28078.72,9245.92,5108.96,-846.02,693.12,-549.7
2880,0.822,0.975,1.0,1.0,1.0,81.76,168.87,-28266.72,8981.92,5304.96,-894.02,432.12,-650.7
2900,0.757,1.0,0.176,1.0,1.0,81.84,170.79,-28254.72,9025.92,5304.96,-315.02,-49.88,-501.7
2919,0.78,1.0,0.737,0.785,1.0,81.93,172.75,-28386.72,8961.92,5240.96,155.98,97.12,-447.7
2940,0.802,1.0,0.0,0.716,1.0,82.07,174.67,-28490.72,8757.92,5324.96,-219.02,338.12,-500.7
2960,0.767,1.0,0.0,0.965,1.0,82.23,176.44,-28518.72,8657.92,5532.96,-651.02,222.12,-420.7
2980,0.765,1.0,0.0,1.0,1.0,82.37,178.02,-28566.72,8749.92,5700.96,-410.02,-18.88,-159.7
