timestamp,flex_1,flex_2,flex_3,flex_4,flex_5,kalman_pitch,kalman_roll,acc_x,acc_y,acc_z,gyro_x,gyro_y,gyro_z
0,1.0,0.0,0.0,0.008,0.0,28.82,55.22,3221.28,-3584.56,18969.52,-736.74,-648.62,-158.54
20,1.0,0.0,0.0,0.0,0.0,25.21,41.47,3453.28,-3868.56,18605.52,-1202.74,-137.62,-363.54
40,0.996,0.0,0.0,0.028,0.0,23.35,32.89,3073.28,-4696.56,19325.52,-552.74,448.38,-756.54
60,1.0,0.0,0.0,0.008,0.0,22.2,27.66,2953.28,-4192.56,19269.52,-230.74,386.38,-13.54
80,1.0,0.0,0.0,0.008,0.0,21.14,23.65,3313.28,-4636.56,19241.52,-391.74,-130.62,-192.54
100,1.0,0.0,0.0,0.023,0.0,20.49,20.46,2845.28,-4840.56,19033.52,-795.74,-794.62,-314.54
120,1.0,0.0,0.0,0.0,0.0,19.79,18.06,2945.28,-4696.56,19217.52,-349.74,-1596.62,-229.54
140,1.0,0.0,0.0,0.0,0.0,19.16,16.0,2817.28,-5024.56,19217.52,-42.74,-2224.62,160.46
160,1.0,0.042,0.0,0.018,0.0,18.44,14.39,3145.28,-4788.56,18997.52,172.26,-2792.62,286.46
180,1.0,0.0,0.0,0.008,0.0,17.87,13.22,2513.28,-4028.56,19173.52,-316.74,-3576.62,-1.54
200,1.0,0.0,0.0,0.0,0.0,17.06,11.9,3289.28,-4844.56,19369.52,-446.74,-3854.62,-101.54
220,1.0,0.0,0.0,0.0,0.0,16.29,10.83,3329.28,-4688.56,19417.52,-24.74,-3952.62,-268.54
240,1.0,0.0,0.0,0.023,0.0,15.35,10.14,4689.28,-3920.56,19205.52,243.26,-2897.62,-425.54
258,1.0,0.0,0.0,0.0,0.0,14.78,9.37,4541.28,-4280.56,19961.52,70.26,-963.62,-394.54
280,1.0,0.0,0.0,0.018,0.0,14.4,8.49,4349.28,-4596.56,20217.52,-490.74,-178.62,-361.54
300,1.0,0.0,0.0,0.043,0.0,14.03,7.58,4253.28,-4736.56,20153.52,-1042.74,-570.62,-84.54
320,1.0,0.0,0.0,0.0,0.0,13.69,6.64,4237.28,-5280.56,19601.52,-767.74,-722.62,361.46
339,1.0,0.0,0.0,0.0,0.0,13.62,5.99,3693.28,-5052.56,19873.52,339.26,153.38,553.46
358,1.0,0.026,0.0,0.0,0.274,13.54,5.4,4157.28,-5040.56,20101.52,524.26,937.38,460.46
379,1.0,0.0,0.0,0.0,0.0,13.65,4.61,3825.28,-5552.56,20253.52,-357.74,1758.38,218.46
398,1.0,0.0,0.0,0.0,0.0,13.92,3.97,3353.28,-5296.56,21033.52,-16.74,2473.38,641.46
420,1.0,0.0,0.0,0.0,0.0,14.29,3.48,2709.28,-5468.56,21309.52,1000.26,2607.38,1502.46
439,1.0,0.0,0.0,0.0,0.0,14.82,3.44,1501.28,-4464.56,21341.52,2563.26,2441.38,2435.46
460,1.0,0.0,0.0,0.0,0.0,15.35,3.85,1085.28,-3596.56,21533.52,4560.26,2279.38,3240.46
479,1.0,0.0,0.0,0.0,0.0,15.91,4.62,1257.28,-2728.56,21645.52,6118.26,2912.38,3853.46
500,1.0,0.0,0.0,0.033,0.0,16.58,5.5,1505.28,-2164.56,21369.52,6386.26,4183.38,3768.46
520,1.0,0.0,0.0,0.083,0.0,17.44,6.31,965.28,-1828.56,22141.52,6029.26,5477.38,3112.46
540,1.0,0.0,0.0,0.0,0.0,18.34,7.07,1533.28,-1624.56,21793.52,5692.26,6582.38,2414.46
560,1.0,0.0,0.0,0.0,0.0,19.45,7.78,1057.28,-1340.56,21645.52,5140.26,7892.38,2116.46
580,1.0,0.0,0.0,0.118,0.0,20.78,8.39,1445.28,-1480.56,21097.52,4783.26,10031.38,1884.46
600,1.0,0.0,0.0,0.0,0.0,22.22,8.76,1117.28,-2856.56,21185.52,4932.26,10857.38,1884.46
620,1.0,0.0,0.0,0.058,0.0,23.73,9.18,1105.28,-3232.56,21045.52,5950.26,11804.38,1886.46
640,1.0,0.0,0.0,0.033,0.0,25.38,9.9,889.28,-2432.56,20441.52,7013.26,12967.38,2361.46
660,1.0,0.026,0.0,0.033,0.0,27.34,10.77,-306.72,-2332.56,19669.52,7940.26,14054.38,2361.46
680,1.0,0.0,0.0,0.003,0.0,29.43,11.88,-678.72,-2144.56,19213.52,9533.26,15152.38,2528.46
700,1.0,0.0,0.0,0.023,0.0,31.6,13.38,-982.72,-1288.56,17965.52,10991.26,15514.38,2826.46
720,1.0,0.0,0.0,0.0,0.0,33.83,15.12,-174.72,-868.56,16225.52,11665.26,16749.38,2626.46
740,1.0,0.0,0.0,0.003,0.0,36.2,16.7,-334.72,-1408.56,15761.52,11768.26,17919.38,2181.46
760,1.0,0.0,0.27,0.0,0.0,38.6,18.24,-742.72,-948.56,15461.52,11069.26,18535.38,1562.46
780,1.0,0.0,0.0,0.003,0.0,41.01,19.87,-1066.72,59.44,14457.52,9895.26,18749.38,925.46
800,1.0,0.0,0.0,0.163,0.0,43.35,21.16,-1314.72,-696.56,13557.52,8512.26,17891.38,591.46
820,1.0,0.0,0.0,0.0,0.0,45.63,22.48,-1118.72,-1144.56,12261.52,8699.26,17219.38,548.46
840,0.959,0.0,0.0,0.0,0.0,48.03,24.32,-882.72,-484.56,10405.52,8957.26,17861.38,343.46
860,1.0,0.0,0.0,0.0,0.0,50.42,26.33,-2450.72,387.44,10709.52,9554.26,17917.38,1237.46
879,1.0,0.0,0.0,0.0,0.0,52.26,28.64,-2870.72,1371.44,10493.52,10409.26,15217.38,1724.46
900,1.0,0.0,0.0,0.0,0.0,53.76,31.22,-2498.72,1783.44,9469.52,10621.26,13617.38,2311.46
920,1.0,0.0,0.0,0.0,0.0,55.27,33.7,-2378.72,1651.44,8445.52,8945.26,13621.38,1682.46
940,1.0,0.0,0.0,0.0,0.0,56.77,36.15,-2362.72,1715.44,7461.52,7243.26,13643.38,1291.46
960,1.0,0.0,0.0,0.003,0.0,58.15,38.49,-3066.72,1007.44,7193.52,7324.26,11851.38,1058.46
980,1.0,0.0,0.0,0.0,0.0,59.07,41.27,-3246.72,2331.44,6885.52,8991.26,10328.38,1574.46
1000,1.0,0.0,0.0,0.0,0.0,59.67,44.18,-2638.72,2519.44,6033.52,8647.26,9034.38,1279.46
1020,1.0,0.0,0.0,0.0,0.0,59.81,47.11,-4982.72,4571.44,5045.52,6500.26,6061.38,1229.46
1040,1.0,0.0,0.0,0.0,0.0,60.46,49.65,-2418.72,2167.44,5649.52,6999.26,9518.38,236.46
1060,0.734,0.0,0.0,0.0,0.0,60.71,52.08,-2502.72,2615.44,5209.52,5650.26,7384.38,-98.54
1078,1.0,0.0,0.0,0.0,0.0,60.73,54.35,-1978.72,1887.44,5001.52,5027.26,5575.38,18.46
1099,1.0,0.0,0.0,0.033,0.0,60.58,56.82,-2490.72,2275.44,4229.52,4934.26,4370.38,146.46
1120,1.0,0.0,0.0,0.043,0.0,60.3,59.14,-2118.72,2671.44,4041.52,4073.26,4331.38,-224.54
1140,1.0,0.0,0.0,0.033,0.0,60.0,61.25,-2426.72,3011.44,3905.52,2882.26,4244.38,-358.54
1160,1.0,0.0,0.0,0.113,0.0,59.7,63.37,-2658.72,2555.44,3273.52,1988.26,3392.38,-661.54
1180,1.0,0.0,0.0,0.298,0.0,59.35,65.33,-2110.72,2527.44,3409.52,1836.26,3621.38,-1191.54
1200,1.0,0.0,0.0,0.258,0.0,58.97,67.09,-2358.72,2499.44,3525.52,1239.26,2939.38,-1260.54
1220,1.0,0.0,0.0,0.353,0.0,58.74,69.27,-7862.72,3091.44,1701.52,401.26,640.38,-1204.54
1239,1.0,0.0,0.0,0.283,0.0,58.41,71.13,-10394.72,4919.44,2129.52,446.26,-53.62,727.46
1260,1.0,0.0,0.0,0.233,0.0,57.9,72.49,-6334.72,4147.44,3181.52,-590.74,313.38,3129.46
1280,1.0,0.018,0.0,0.293,0.0,57.15,73.68,-3662.72,2679.44,3449.52,-994.74,-1077.62,4424.46
1300,1.0,0.0,0.0,0.518,0.0,56.26,75.19,-3294.72,2563.44,3137.52,794.26,-2060.62,5125.46
1320,1.0,0.0,0.0,0.328,0.0,55.19,77.15,-3290.72,3387.44,2481.52,2975.26,-2562.62,4862.46
1340,1.0,0.0,0.0,0.348,0.0,54.17,78.76,-4398.72,4895.44,3469.52,3412.26,-2171.62,4302.46
1360,1.0,0.0,0.0,0.333,0.0,53.16,79.91,-5146.72,5151.44,4021.52,1816.26,-2753.62,3463.46
1380,1.0,0.0,0.0,0.383,0.0,52.17,80.83,-4542.72,4815.44,3749.52,109.26,-2751.62,2577.46
1400,0.664,0.0,0.0,0.028,0.0,51.38,81.65,-4226.72,4759.44,3481.52,-839.74,-1563.62,1819.46
1420,0.906,0.0,0.0,0.038,0.0,50.76,82.42,-4678.72,4631.44,3577.52,-785.74,-1163.62,1483.46
1440,0.438,0.0,0.0,0.068,0.0,50.31,83.16,-4906.72,4467.44,3897.52,-128.74,-516.62,1118.46
1460,0.541,0.0,0.0,0.138,0.0,49.9,83.89,-5206.72,4599.44,4061.52,340.26,-496.62,1080.46
1479,1.0,0.0,0.0,0.248,0.274,49.53,84.7,-4778.72,4563.44,3621.52,240.26,-105.62,957.46
1499,1.0,0.0,0.189,0.218,0.0,49.26,85.48,-4606.72,4239.44,3393.52,-120.74,267.38,818.46
1519,1.0,0.0,0.025,0.358,0.0,49.09,86.35,-4482.72,4135.44,3213.52,311.26,885.38,647.46
1538,1.0,0.0,0.0,0.353,0.0,48.92,87.13,-4634.72,4363.44,3517.52,660.26,863.38,656.46
1559,1.0,0.0,0.0,0.333,0.0,48.76,88.08,-4534.72,4055.44,3009.52,975.26,722.38,625.46
1580,1.0,0.0,0.0,0.468,0.0,48.62,89.01,-4494.72,4639.44,2929.52,1105.26,1312.38,316.46
1599,1.0,0.0,0.0,0.248,0.0,48.46,89.85,-4606.72,4547.44,2801.52,490.26,1033.38,132.46
1619,0.968,0.0,0.0,0.193,0.0,48.31,90.6,-4570.72,4387.44,2817.52,118.26,886.38,-92.54
1638,1.0,0.0,0.0,0.083,0.0,48.09,91.29,-4498.72,4535.44,2749.52,-98.74,511.38,-86.54
1659,1.0,0.0,0.0,0.038,0.0,47.84,92.03,-4194.72,4067.44,2609.52,5.26,67.38,76.46
1679,1.0,0.0,0.0,0.028,0.0,47.56,92.73,-4106.72,4351.44,2781.52,446.26,51.38,195.46
1699,1.0,0.0,0.0,0.013,0.0,47.19,93.46,-3826.72,4407.44,2689.52,699.26,-385.62,391.46
1719,1.0,0.0,0.0,0.0,0.0,46.91,94.03,-4190.72,4471.44,3205.52,830.26,-105.62,303.46
1738,1.0,0.0,0.0,0.008,0.0,46.59,94.46,-4394.72,4839.44,3381.52,442.26,-375.62,258.46
1759,1.0,0.0,0.0,0.0,0.0,46.26,94.85,-4218.72,4735.44,3181.52,-75.74,-527.62,201.46
1778,1.0,0.0,0.0,0.0,0.0,45.99,95.24,-4006.72,4467.44,2941.52,-363.74,-316.62,77.46
1799,0.84,0.0,0.0,0.008,0.0,45.75,95.6,-4234.72,4459.44,3069.52,-208.74,-354.62,23.46
1818,1.0,0.0,0.0,0.023,0.0,45.54,95.98,-4026.72,4483.44,3069.52,54.26,-129.62,-48.54
1839,0.816,0.0,0.0,0.0,0.0,45.39,96.21,-4454.72,4727.44,3445.52,-135.74,86.38,-93.54
1859,0.844,0.0,0.0,0.033,0.0,45.23,96.44,-4486.72,4511.44,3373.52,-70.74,-311.62,-16.54
1878,0.812,0.0,0.189,0.0,0.0,45.04,96.66,-4222.72,4535.44,3517.52,146.26,-338.62,9.46
1898,0.963,0.0,0.434,0.0,0.0,44.87,96.83,-4242.72,4451.44,3461.52,-173.74,-399.62,-23.54
1919,0.758,0.0,0.0,0.0,0.0,44.71,96.97,-4246.72,4511.44,3529.52,-155.74,-295.62,17.46
1938,0.783,0.0,0.0,0.0,0.0,44.61,97.08,-4262.72,4331.44,3565.52,-185.74,-256.62,43.46
1958,0.754,0.0,0.0,0.0,0.0,44.53,97.23,-4038.72,4459.44,3477.52,-38.74,198.38,-116.54
1978,0.783,0.0,0.0,0.0,0.0,44.49,97.3,-4298.72,4587.44,3693.52,-90.74,313.38,-61.54
1999,0.697,0.0,0.0,0.0,0.0,44.47,97.44,-4170.72,4387.44,3485.52,85.26,326.38,-9.54
2019,0.746,0.0,0.0,0.0,0.0,44.45,97.56,-4318.72,4755.44,3581.52,161.26,473.38,-40.54
2038,0.59,0.0,0.0,0.0,0.0,44.4,97.67,-4374.72,4687.44,3437.52,-6.74,154.38,-45.54
2059,0.697,0.0,0.0,0.018,0.0,44.35,97.79,-4218.72,4731.44,3413.52,-18.74,260.38,-166.54
2080,0.713,0.0,0.352,0.0,0.0,44.29,97.85,-4126.72,4615.44,3405.52,-255.74,186.38,-126.54
2099,0.73,0.0,0.0,0.033,0.0,44.3,97.97,-4174.72,4231.44,3221.52,-245.74,183.38,-152.54
2119,0.75,0.0,0.0,0.0,0.0,44.27,98.08,-4270.72,4587.44,3301.52,-68.74,133.38,-204.54
2140,0.877,0.0,0.0,0.0,0.0,44.25,98.23,-4206.72,4503.44,3057.52,-115.74,120.38,-171.54
2160,1.0,0.0,0.0,0.0,0.0,44.22,98.27,-4410.72,4535.44,3437.52,-104.74,-105.62,-141.54
2179,1.0,0.0,0.0,0.0,0.0,44.17,98.35,-4502.72,4447.44,3397.52,107.26,-410.62,-74.54
2200,1.0,0.0,0.0,0.0,0.0,44.09,98.46,-4390.72,4579.44,3357.52,337.26,-547.62,-138.54
2220,1.0,0.0,0.0,0.023,0.0,44.07,98.58,-4210.72,4315.44,3309.52,368.26,-231.62,-218.54
2238,1.0,0.0,0.0,0.0,0.0,44.09,98.65,-4346.72,4431.44,3425.52,339.26,60.38,-340.54
2258,1.0,0.0,0.0,0.003,0.0,44.18,98.68,-4502.72,4311.44,3505.52,216.26,213.38,-334.54
2278,1.0,0.0,0.0,0.0,0.0,44.28,98.7,-4538.72,4303.44,3465.52,153.26,221.38,-302.54
2299,1.0,0.0,0.0,0.008,0.0,44.36,98.66,-4486.72,4255.44,3533.52,-63.74,148.38,-230.54
2320,1.0,0.0,0.0,0.028,0.274,44.44,98.72,-4238.72,4071.44,3137.52,-118.74,138.38,-116.54
2339,1.0,0.0,0.0,0.018,0.828,44.52,98.76,-4394.72,4243.44,3225.52,-9.74,141.38,-18.54
2358,0.812,0.0,0.0,0.003,0.0,44.6,98.84,-4446.72,4119.44,3193.52,180.26,1.38,47.46
2378,0.758,0.0,0.434,0.0,0.0,44.65,98.89,-4278.72,4455.44,3225.52,153.26,222.38,41.46
2399,0.775,0.0,0.0,0.008,0.0,44.74,98.87,-4558.72,4339.44,3277.52,-161.74,157.38,78.46
2419,0.857,0.0,0.0,0.0,0.0,44.82,98.92,-4374.72,4267.44,3081.52,-49.74,189.38,21.46
2439,0.779,0.0,0.0,0.018,0.0,44.85,98.9,-4258.72,4559.44,3133.52,-291.74,189.38,-50.54
2459,0.82,0.0,0.0,0.0,0.0,44.9,98.88,-4374.72,4315.44,2981.52,-638.74,-5.62,-56.54
2480,0.803,0.0,0.0,0.0,0.0,44.93,98.82,-4382.72,4303.44,3169.52,-559.74,-146.62,-109.54
2499,1.0,0.0,0.0,0.003,0.487,44.9,98.75,-4354.72,4379.44,3193.52,-535.74,-526.62,-15.54
2518,1.0,0.018,0.0,0.0,0.0,44.91,98.68,-4326.72,4083.44,3221.52,-477.74,-546.62,18.46
2539,1.0,0.0,0.0,0.0,0.0,44.9,98.56,-4362.72,4371.44,3517.52,-299.74,-470.62,49.46
2560,1.0,0.0,0.598,0.053,0.0,44.89,98.49,-4266.72,4319.44,3345.52,-227.74,-468.62,176.46
2579,1.0,0.0,0.0,0.038,0.0,44.9,98.34,-4374.72,4491.44,3613.52,-234.74,-299.62,180.46
2600,1.0,0.003,0.0,0.043,0.0,44.94,98.19,-4494.72,4319.44,3649.52,-240.74,-413.62,254.46
2620,1.0,0.0,0.27,0.003,0.0,44.97,98.04,-4338.72,4511.44,3681.52,-178.74,-132.62,137.46
2639,1.0,0.0,0.0,0.003,0.0,45.02,97.84,-4442.72,4483.44,3737.52,-349.74,-166.62,58.46
2659,1.0,0.0,0.0,0.0,0.0,45.08,97.68,-4322.72,4283.44,3557.52,-478.74,-140.62,44.46
2678,1.0,0.0,0.0,0.0,0.0,45.14,97.5,-4334.72,4463.44,3725.52,-332.74,-85.62,60.46
2700,1.0,0.0,0.0,0.008,0.0,45.16,97.3,-4410.72,4435.44,3769.52,-428.74,-404.62,167.46
2720,1.0,0.0,0.0,0.078,0.0,45.13,97.17,-4238.72,4583.44,3649.52,-162.74,-456.62,186.46
2738,1.0,0.0,0.0,0.003,0.0,45.13,97.12,-4114.72,4339.44,3369.52,-83.74,-415.62,221.46
2759,1.0,0.018,0.0,0.033,0.0,45.25,97.05,-5038.72,4575.44,3373.52,-232.74,-167.62,82.46
2779,1.0,0.0,0.0,0.0,0.0,45.38,96.85,-4558.72,4323.44,3781.52,-394.74,78.38,-13.54
2799,1.0,0.0,0.0,0.013,0.0,45.41,96.72,-4314.72,4435.44,3609.52,-238.74,-288.62,-5.54
2819,1.0,0.0,0.0,0.003,0.0,45.45,96.57,-4366.72,4567.44,3749.52,-124.74,-230.62,-9.54
2840,1.0,0.0,0.0,0.0,0.0,45.5,96.43,-4322.72,4351.44,3669.52,-263.74,-241.62,-79.54
2860,1.0,0.0,0.0,0.0,0.0,45.56,96.28,-4450.72,4391.44,3693.52,-245.74,-288.62,-100.54
2880,1.0,0.0,0.0,0.0,0.0,45.63,96.12,-4394.72,4303.44,3721.52,-289.74,-288.62,-31.54
2898,1.0,0.0,0.0,0.0,0.0,45.72,95.97,-4598.72,4223.44,3733.52,-234.74,-314.62,43.46
2918,1.0,0.0,0.0,0.003,0.0,45.81,95.77,-4350.72,4195.44,3869.52,-293.74,-189.62,65.46
2938,1.0,0.0,0.0,0.0,0.0,45.89,95.57,-4238.72,4371.44,3877.52,-350.74,-49.62,97.46
2960,1.0,0.026,0.0,0.0,0.0,45.98,95.38,-4426.72,4283.44,3833.52,-344.74,-131.62,197.46
2978,1.0,0.0,0.0,0.0,0.0,46.06,95.24,-4354.72,4359.44,3797.52,-139.74,-90.62,198.46
