timestamp,flex_1,flex_2,flex_3,flex_4,flex_5,kalman_pitch,kalman_roll,acc_x,acc_y,acc_z,gyro_x,gyro_y,gyro_z
0,0.723,0.0,0.0,0.0,0.0,-27.95,-21.16,-110.64,-1777.36,14110.8,893.78,378.22,642.9
19,1.0,0.021,0.0,0.0,0.0,-40.04,-39.26,93.36,-2069.36,13958.8,-231.22,255.22,304.9
38,0.766,0.0,0.0,0.0,0.0,-45.13,-45.76,225.36,-1601.36,13926.8,133.78,119.22,197.9
59,0.798,0.0,0.0,0.0,0.113,-47.53,-49.5,57.36,-1985.36,13998.8,-156.22,342.22,178.9
78,0.83,0.002,0.055,0.0,0.0,-48.95,-51.67,-218.64,-1897.36,14154.8,81.78,380.22,468.9
99,0.948,0.002,0.0,0.0,0.035,-49.9,-53.4,-118.64,-2157.36,14110.8,-39.22,450.22,301.9
119,1.0,0.0,0.0,0.0,0.113,-50.74,-54.76,157.36,-2097.36,14074.8,-280.22,390.22,120.9
138,0.862,0.0,0.0,0.0,0.0,-51.31,-55.83,-202.64,-2185.36,14166.8,-254.22,172.22,187.9
159,1.0,0.008,0.0,0.0,0.0,-51.76,-56.73,-202.64,-2389.36,14246.8,-174.22,-62.78,40.9
178,0.809,0.0,0.0,0.0,0.0,-52.18,-57.4,-190.64,-2425.36,14434.8,79.78,-508.78,-281.1
199,0.819,0.021,0.0,0.0,0.268,-52.77,-57.57,169.36,-1993.36,14882.8,657.78,-1203.78,-187.1
218,0.67,0.0,0.0,0.0,0.0,-53.1,-57.2,-270.64,-1949.36,15954.8,1206.78,-1533.78,154.9
239,0.659,0.002,0.0,0.0,0.0,-53.31,-57.79,57.36,-3633.36,15050.8,346.78,-1739.78,1100.9
259,0.446,0.008,0.0,0.0,0.0,-53.28,-58.57,125.36,-4369.36,15098.8,-541.22,-892.78,2494.9
278,1.0,0.04,0.0,0.0,0.0,-52.78,-59.82,-106.64,-5553.36,15066.8,-2786.22,841.22,4492.9
299,0.0,0.046,0.0,0.0,0.0,-51.62,-61.02,-1046.64,-8593.36,16254.8,-2623.22,1256.22,7963.9
318,0.98,0.046,0.0,0.0,0.0,-49.73,-61.92,-2874.64,-10361.36,17030.8,-1086.22,3198.22,12430.9
338,0.168,0.021,0.0,0.0,0.113,-47.63,-62.62,-4098.64,-13757.36,17930.8,814.78,2009.22,19119.9
359,1.0,0.021,0.0,0.0,0.0,-45.48,-62.55,-5058.64,-15865.36,18930.8,5767.78,1276.22,24787.9
378,1.0,0.052,0.0,0.0,0.0,-43.48,-61.79,-5734.64,-17109.36,19986.8,10188.78,-139.78,27425.9
399,1.0,0.071,0.0,0.0,0.0,-41.25,-60.34,-5574.64,-16981.36,21302.8,14141.78,2322.22,31671.9
419,1.0,0.083,0.0,0.0,0.113,-38.65,-58.74,-6370.64,-18597.36,20598.8,17405.78,4587.22,31275.9
439,1.0,0.083,0.0,0.0,0.113,-36.27,-56.34,-5318.64,-14417.36,21674.8,20655.78,6232.22,31191.9
459,1.0,0.096,0.0,0.302,1.0,-33.67,-54.35,-3818.64,-11989.36,22694.8,16358.78,10954.22,31166.9
479,1.0,0.14,0.0,0.471,0.191,-30.39,-53.61,-5662.64,-13045.36,23686.8,8254.78,14332.22,31998.9
499,1.0,0.134,0.0,0.522,0.113,-26.82,-53.01,-6138.64,-17033.36,22742.8,11091.78,16556.22,32806.9
519,1.0,0.083,0.0,0.562,0.891,-23.04,-51.11,-6554.64,-16281.36,23938.8,19144.78,19174.22,32806.9
538,1.0,0.152,0.0,0.089,0.191,-19.28,-48.86,-6610.64,-14609.36,24558.8,21081.78,21104.22,32806.9
559,1.0,0.152,0.0,0.164,0.191,-15.39,-47.29,-8382.64,-11921.36,23130.8,16945.78,22625.22,32806.9
580,1.0,0.165,0.0,0.218,0.268,-11.48,-46.03,-10202.64,-11669.36,23434.8,15117.78,22534.22,32806.9
599,1.0,0.165,0.0,0.066,0.58,-7.86,-44.41,-10090.64,-10773.36,22466.8,18705.78,22857.22,32806.9
619,1.0,0.14,0.0,0.103,0.035,-4.06,-42.27,-11626.64,-7501.36,21126.8,21816.78,24315.22,32806.9
639,0.937,0.178,0.0,0.0,0.658,-0.11,-39.59,-13502.64,-3653.36,19826.8,23750.78,24496.22,32806.9
659,1.0,0.178,0.0,0.0,0.502,3.84,-36.25,-15094.64,-1241.36,18438.8,28008.78,22623.22,32806.9
679,1.0,0.146,0.009,0.0,1.0,7.09,-31.87,-14486.64,1562.64,17086.8,32994.78,20458.22,32806.9
699,1.0,0.14,0.0,0.0,0.346,11.07,-27.19,-15718.64,3622.64,15822.8,32994.78,21740.22,32806.9
719,0.777,0.115,0.0,0.0,0.502,15.39,-21.16,-15846.64,6526.64,13962.8,32994.78,21688.22,31359.9
738,0.884,0.165,0.0,0.0,0.969,19.51,-16.29,-16950.64,6546.64,14366.8,27499.78,18586.22,26971.9
759,0.755,0.14,0.0,0.0,0.113,23.91,-12.06,-19850.64,6994.64,14854.8,22956.78,15123.22,25948.9
778,1.0,0.115,0.0,0.0,0.58,26.88,-6.6,-16078.64,8826.64,12462.8,18855.78,14698.22,20274.9
799,1.0,0.065,0.0,0.0,0.113,30.84,-6.32,-18150.64,3914.64,12266.8,20820.78,14890.22,20216.9
819,1.0,0.159,0.0,0.0,0.113,33.51,-0.9,-18366.64,11038.64,11662.8,8764.78,10281.22,14187.9
839,1.0,0.203,0.0,0.0,0.58,36.5,1.97,-19338.64,8930.64,12830.8,6075.78,9052.22,10079.9
859,1.0,0.152,0.0,0.0,0.191,38.97,6.21,-19650.64,10710.64,11658.8,4402.78,7352.22,8001.9
878,1.0,0.134,0.0,0.0,0.813,40.7,10.09,-20458.64,12802.64,12146.8,606.78,6252.22,6135.9
899,1.0,0.165,0.0,0.0,0.346,42.17,14.23,-20686.64,13810.64,11342.8,-584.22,6058.22,5066.9
919,1.0,0.14,0.0,0.0,0.113,43.41,18.22,-21246.64,14790.64,11570.8,-447.22,5740.22,4688.9
938,1.0,0.14,0.0,0.0,0.58,44.54,21.9,-22306.64,15134.64,12074.8,-148.22,4532.22,3579.9
959,1.0,0.109,0.0,0.0,0.658,45.4,25.8,-22498.64,15874.64,11146.8,-500.22,3620.22,2415.9
978,1.0,0.146,0.0,0.0,0.113,46.11,29.58,-23182.64,16906.64,10966.8,-1059.22,3267.22,1365.9
999,1.0,0.121,0.0,0.0,0.113,46.64,33.39,-23270.64,16898.64,10406.8,-927.22,2100.22,377.9
1019,1.0,0.146,0.0,0.0,0.113,47.04,36.72,-24210.64,17434.64,11378.8,-891.22,1176.22,-263.1
1039,1.0,0.14,0.0,0.0,0.268,47.32,39.8,-24778.64,17858.64,11442.8,-1508.22,314.22,-933.1
1059,1.0,0.127,0.0,0.0,0.346,47.56,42.55,-25246.64,17950.64,11858.8,-1897.22,-143.78,-1377.1
1078,0.969,0.121,0.0,0.0,0.502,47.71,45.22,-25478.64,18078.64,11870.8,-1486.22,-747.78,-1538.1
1099,0.969,0.127,0.0,0.0,0.735,47.85,47.72,-25722.64,17898.64,12218.8,-933.22,-1105.78,-1424.1
1119,0.884,0.152,0.0,0.0,0.268,47.99,50.17,-25978.64,17826.64,12274.8,-241.22,-1304.78,-1277.1
1138,0.937,0.121,0.0,0.0,0.113,48.21,52.35,-26442.64,17294.64,12886.8,457.78,-1552.78,-1184.1
1159,0.884,0.121,0.0,0.0,0.191,48.42,54.65,-25990.64,16826.64,12186.8,956.78,-1736.78,-1267.1
1178,1.0,0.121,0.0,0.0,0.58,48.67,56.7,-25846.64,16750.64,12506.8,801.78,-1283.78,-1210.1
1199,1.0,0.14,0.0,0.0,0.113,48.88,58.57,-25474.64,16526.64,12354.8,142.78,-1306.78,-1166.1
1218,1.0,0.115,0.0,0.0,0.113,49.17,60.18,-25610.64,15770.64,12550.8,165.78,-1661.78,-1095.1
1238,1.0,0.115,0.0,0.0,0.113,49.42,61.78,-25502.64,15818.64,12230.8,-84.22,-1732.78,-1103.1
1259,1.0,0.115,0.0,0.0,0.191,49.68,63.05,-25586.64,15702.64,12650.8,-769.22,-1606.78,-1324.1
1278,1.0,0.083,0.0,0.0,0.502,49.9,64.12,-25398.64,15814.64,12762.8,-1461.22,-1383.78,-1473.1
1299,1.0,0.14,0.0,0.0,0.268,50.17,65.01,-25382.64,15698.64,12922.8,-1780.22,-1076.78,-1479.1
1319,1.0,0.14,0.0,0.0,0.268,50.44,65.76,-25746.64,15722.64,13410.8,-1400.22,-975.78,-1310.1
1338,1.0,0.096,0.0,0.0,0.113,50.69,66.5,-25702.64,15514.64,13438.8,-911.22,-1213.78,-1260.1
1359,0.948,0.115,0.0,0.0,0.268,50.91,67.17,-25698.64,15662.64,13558.8,-948.22,-1073.78,-1219.1
1378,1.0,0.134,0.0,0.0,0.191,51.19,67.78,-25846.64,15434.64,13418.8,-1097.22,-999.78,-1231.1
1399,0.969,0.109,0.0,0.0,0.113,51.44,68.39,-25594.64,15586.64,13382.8,-1106.22,-771.78,-1175.1
1419,0.958,0.121,0.0,0.0,0.113,51.74,68.93,-25958.64,15418.64,13358.8,-1165.22,-755.78,-1186.1
1439,1.0,0.121,0.0,0.0,0.113,52.01,69.43,-26034.64,15470.64,13502.8,-990.22,-827.78,-1110.1
1459,1.0,0.127,0.0,0.0,0.502,52.28,69.88,-26178.64,15578.64,13610.8,-941.22,-701.78,-1029.1
1478,1.0,0.14,0.009,0.0,0.346,52.54,70.3,-26006.64,15534.64,13458.8,-1236.22,-558.78,-898.1
1499,0.958,0.121,0.0,0.0,0.268,52.83,70.66,-26038.64,15526.64,13462.8,-1427.22,-328.78,-779.1
1518,1.0,0.159,0.0,0.0,0.346,53.11,70.98,-26034.64,15426.64,13570.8,-1201.22,-318.78,-672.1
1538,1.0,0.127,0.0,0.0,0.113,53.31,71.29,-26090.64,15466.64,13914.8,-496.22,-546.78,-440.1
1559,1.0,0.109,0.192,0.0,0.191,53.52,71.6,-26174.64,15390.64,13938.8,-125.22,-567.78,-407.1
1578,1.0,0.146,0.0,0.0,0.346,53.7,71.87,-26066.64,15354.64,13970.8,-161.22,-593.78,-291.1
1599,1.0,0.115,0.238,0.0,0.268,53.88,72.17,-25870.64,15398.64,13758.8,-241.22,-380.78,-270.1
1619,1.0,0.115,0.0,0.0,0.113,54.08,72.44,-25790.64,15358.64,13714.8,-331.22,-183.78,-221.1
1639,1.0,0.115,0.0,0.0,0.0,54.31,72.62,-26002.64,15122.64,13878.8,-173.22,-201.78,-146.1
1659,1.0,0.115,0.0,0.0,0.113,54.51,72.78,-25926.64,15226.64,13942.8,-216.22,-73.78,-219.1
1678,1.0,0.096,0.0,0.0,0.0,54.72,72.96,-25878.64,15222.64,13694.8,-444.22,-18.78,-213.1
1699,1.0,0.121,0.0,0.0,0.346,54.93,73.2,-25794.64,15230.64,13390.8,-407.22,-13.78,-145.1
1719,1.0,0.109,0.0,0.0,0.0,55.1,73.42,-25794.64,15354.64,13458.8,-481.22,6.22,-196.1
1739,1.0,0.121,0.0,0.0,0.113,55.27,73.61,-25854.64,15338.64,13454.8,-459.22,-9.78,-286.1
1759,1.0,0.109,0.0,0.0,0.113,55.39,73.76,-26070.64,15430.64,13662.8,-343.22,-234.78,-305.1
1778,1.0,0.102,0.0,0.0,0.035,55.45,73.89,-25906.64,15366.64,13710.8,-271.22,-504.78,-273.1
1799,1.0,0.127,0.0,0.0,0.035,55.51,74.04,-25850.64,15478.64,13490.8,-463.22,-386.78,-388.1
1819,1.0,0.127,0.0,0.0,0.035,55.58,74.17,-25842.64,15490.64,13466.8,-579.22,-308.78,-343.1
1839,1.0,0.115,0.0,0.0,0.113,55.65,74.2,-26098.64,15342.64,13842.8,-312.22,-374.78,-258.1
1859,1.0,0.115,0.0,0.0,0.424,55.68,74.32,-25942.64,15530.64,13634.8,-150.22,-468.78,-241.1
1878,1.0,0.121,0.0,0.0,0.268,55.75,74.42,-25918.64,15374.64,13486.8,-327.22,-288.78,-280.1
1899,1.0,0.115,0.0,0.0,0.346,55.86,74.55,-25806.64,15210.64,13354.8,-100.22,-92.78,-437.1
1919,1.0,0.121,0.0,0.0,0.268,55.92,74.69,-25718.64,15794.64,13534.8,-160.22,276.22,-539.1
1939,1.0,0.09,0.0,0.0,0.502,55.94,74.65,-26146.64,15498.64,14046.8,-55.22,-288.78,-357.1
1959,0.713,0.14,0.0,0.0,0.035,55.95,74.68,-25958.64,15166.64,13734.8,196.78,-636.78,-332.1
1979,0.766,0.115,0.0,0.0,0.113,55.96,74.74,-25798.64,15158.64,13418.8,-95.22,-588.78,-389.1
1999,0.894,0.052,0.0,0.0,0.0,56.02,74.71,-25958.64,14854.64,13362.8,-385.22,-656.78,-356.1
2019,0.948,0.102,0.0,0.0,0.346,56.01,74.69,-25878.64,15026.64,13570.8,-100.22,-801.78,-387.1
2039,0.969,0.146,0.0,0.0,0.113,55.99,74.58,-25990.64,15070.64,13814.8,-207.22,-821.78,-461.1
2059,0.755,0.102,0.0,0.0,0.191,55.98,74.42,-26114.64,15150.64,13950.8,-379.22,-645.78,-526.1
2078,1.0,0.165,0.0,0.0,0.113,56.01,74.28,-26250.64,15126.64,13814.8,-389.22,-556.78,-573.1
2099,1.0,0.121,0.0,0.0,0.113,56.03,74.16,-26114.64,15134.64,13762.8,-393.22,-475.78,-451.1
2118,0.948,0.096,0.0,0.0,0.191,56.05,73.98,-26214.64,15162.64,14034.8,-297.22,-406.78,-347.1
2138,1.0,0.14,0.0,0.0,0.424,56.06,73.85,-26206.64,15338.64,14026.8,-104.22,-299.78,-256.1
2159,0.969,0.115,0.0,0.0,0.0,56.12,73.74,-26346.64,15254.64,13890.8,-107.22,-179.78,-246.1
2180,1.0,0.121,0.0,0.002,0.113,56.17,73.64,-26318.64,15286.64,13858.8,-65.22,-134.78,-20.1
2199,0.948,0.09,0.0,0.0,0.113,56.19,73.58,-26262.64,15354.64,13770.8,14.78,-223.78,229.9
2219,0.766,0.121,0.0,0.0,0.191,56.23,73.53,-26082.64,15170.64,13586.8,-64.22,-173.78,391.9
2239,0.841,0.102,0.0,0.049,0.113,56.23,73.42,-25994.64,15274.64,13866.8,16.78,-157.78,512.9
2259,0.713,0.115,0.0,0.039,0.113,56.23,73.4,-25790.64,15138.64,13470.8,9.78,-241.78,678.9
2278,0.659,0.115,0.0,0.012,0.113,56.27,73.25,-25946.64,14934.64,13862.8,144.78,-80.78,688.9
2299,0.681,0.102,0.0,0.008,0.268,56.23,73.15,-25846.64,15118.64,13854.8,325.78,-297.78,582.9
2319,0.681,0.121,0.0,0.0,0.346,56.23,73.12,-25630.64,15094.64,13322.8,-146.22,-154.78,436.9
2339,0.691,0.115,0.0,0.0,0.113,56.22,73.1,-25542.64,15246.64,13326.8,-141.22,11.22,147.9
2359,0.616,0.159,0.0,0.0,0.113,56.21,72.96,-25722.64,15290.64,13722.8,-205.22,123.22,-48.1
2379,0.67,0.115,0.101,0.046,0.113,56.23,72.78,-26022.64,15158.64,13846.8,-210.22,41.22,-137.1
2399,0.659,0.109,0.0,0.015,0.113,56.17,72.67,-25754.64,15634.64,13870.8,-85.22,129.22,-380.1
2419,0.659,0.109,0.0,0.035,0.346,56.17,72.52,-25982.64,15410.64,13670.8,-466.22,188.22,-547.1
2439,0.67,0.102,0.0,0.019,0.113,56.15,72.38,-25750.64,15450.64,13666.8,-462.22,231.22,-640.1
2459,0.649,0.115,0.0,0.019,0.113,56.14,72.18,-25994.64,15334.64,13830.8,-414.22,129.22,-617.1
2478,0.52,0.096,0.0,0.0,0.113,56.12,72.05,-25978.64,15206.64,13590.8,-324.22,-189.78,-531.1
2499,0.67,0.115,0.009,0.0,0.191,56.06,71.9,-25906.64,15282.64,13726.8,-241.22,-193.78,-435.1
2519,0.488,0.115,0.0,0.0,0.113,56.0,71.72,-26046.64,15226.64,13694.8,-417.22,-325.78,-400.1
2539,0.595,0.115,0.0,0.0,0.113,55.94,71.54,-25922.64,15122.64,13578.8,-578.22,-437.78,-377.1
2559,0.563,0.102,0.0,0.0,0.113,55.88,71.28,-26026.64,15086.64,13862.8,-587.22,-393.78,-341.1
2578,0.595,0.146,0.009,0.0,0.268,55.82,71.08,-25998.64,15174.64,13646.8,-658.22,-391.78,-344.1
2599,0.584,0.115,0.0,0.0,0.113,55.78,70.8,-25978.64,15114.64,13786.8,-972.22,-152.78,-448.1
2619,0.638,0.115,0.0,0.0,0.113,55.83,70.5,-26098.64,14846.64,13766.8,-885.22,50.22,-464.1
2639,0.691,0.121,0.0,0.0,0.346,55.82,70.26,-26174.64,15030.64,14078.8,-148.22,-37.78,-430.1
2659,0.702,0.115,0.0,0.0,0.346,55.76,70.02,-26566.64,15106.64,14354.8,226.78,-437.78,-290.1
2678,0.649,0.127,0.0,0.0,0.346,55.71,69.86,-26298.64,14962.64,13954.8,183.78,-496.78,-281.1
2699,0.584,0.121,0.0,0.0,0.113,55.71,69.66,-26306.64,14902.64,13878.8,-110.22,-258.78,-262.1
2719,0.52,0.115,0.0,0.0,0.113,55.72,69.53,-26186.64,14886.64,13598.8,-142.22,-210.78,-113.1
2738,0.488,0.09,0.0,0.0,0.113,55.71,69.43,-26338.64,15078.64,13718.8,122.78,-214.78,-82.1
2759,0.542,0.115,0.0,0.002,0.191,55.69,69.37,-26262.64,15114.64,13586.8,184.78,-317.78,-60.1
2778,0.649,0.115,0.0,0.0,0.0,55.65,69.28,-26354.64,15130.64,13678.8,57.78,-354.78,-73.1
2799,0.488,0.14,0.0,0.0,0.0,55.63,69.18,-26274.64,15014.64,13538.8,-102.22,-382.78,-57.1
2819,0.456,0.115,0.0,0.0,0.113,55.6,69.03,-26122.64,15026.64,13618.8,-301.22,-283.78,-43.1
2839,0.531,0.102,0.0,0.0,0.113,55.56,68.85,-26086.64,15006.64,13670.8,-371.22,-260.78,-0.1
2859,0.51,0.09,0.0,0.0,0.268,55.51,68.71,-25986.64,15098.64,13626.8,-370.22,-213.78,-40.1
2879,0.51,0.109,0.238,0.0,0.113,55.46,68.56,-26106.64,15094.64,13678.8,-286.22,-292.78,23.9
2899,0.52,0.115,0.0,0.0,0.191,55.38,68.4,-26114.64,15210.64,13858.8,-182.22,-295.78,62.9
2919,0.552,0.109,0.0,0.0,0.113,55.29,68.27,-25950.64,15338.64,13762.8,-246.22,-241.78,63.9
2939,0.499,0.102,0.0,0.0,0.113,55.2,68.15,-25942.64,15278.64,13734.8,-187.22,-256.78,50.9
2958,0.691,0.096,0.009,0.0,0.191,55.1,68.1,-25898.64,15326.64,13610.8,23.78,-336.78,121.9
2978,0.606,0.109,0.0,0.0,0.0,54.99,67.98,-25942.64,15338.64,13986.8,205.78,-297.78,111.9
