timestamp,flex_1,flex_2,flex_3,flex_4,flex_5,kalman_pitch,kalman_roll,acc_x,acc_y,acc_z,gyro_x,gyro_y,gyro_z
0,1.0,0.0,0.698,0.33,0.0,110.65,53.48,429.92,-1706.56,13940.8,-6956.14,5433.02,972.02
20,1.0,0.996,0.698,0.719,0.0,73.55,32.11,1297.92,-1926.56,13780.8,-4785.14,6939.02,119.02
40,1.0,0.0,0.0,0.0,0.057,50.26,19.28,477.92,-1510.56,14436.8,-2771.14,7911.02,-572.98
60,1.0,0.366,1.0,0.719,0.0,32.85,10.97,1917.92,-402.56,13656.8,-908.14,7146.02,-1552.98
80,1.0,0.0,0.242,1.0,1.0,20.38,4.56,1581.92,-1450.56,14556.8,58.86,5816.02,-1194.98
100,1.0,0.627,0.0,0.947,0.0,10.23,-0.1,1789.92,-946.56,14320.8,741.86,3821.02,-229.98
120,1.0,0.048,1.0,1.0,1.0,1.84,-3.9,3349.92,-854.56,14248.8,-13.14,4726.02,-336.98
140,1.0,0.92,0.0,1.0,0.0,-4.3,-7.29,2853.92,-1498.56,14984.8,-1266.14,7844.02,-68.98
160,1.0,0.538,0.0,1.0,0.576,-8.52,-10.52,1821.92,-2522.56,15980.8,-2792.14,10661.02,-421.98
180,1.0,0.455,0.641,1.0,0.112,-11.47,-13.26,13.92,-2342.56,17108.8,-4838.14,11373.02,-457.98
200,1.0,0.544,0.0,0.558,0.0,-14.01,-16.71,-478.08,-3690.56,17536.8,-9787.14,9092.02,673.02
221,0.923,0.188,0.0,0.437,1.0,-16.18,-20.59,-1482.08,-4246.56,17804.8,-14686.14,7385.02,1048.02
241,0.697,0.124,0.698,0.0,1.0,-18.65,-25.14,-1058.08,-5706.56,17836.8,-19532.14,3189.02,2566.02
261,0.496,0.086,0.0,0.987,0.194,-21.31,-29.41,-1470.08,-5938.56,18964.8,-21232.14,-1323.98,4629.02
281,0.774,0.137,1.0,1.0,0.0,-24.44,-34.01,-390.08,-6566.56,17648.8,-23480.14,-4370.98,6533.02
301,0.184,0.0,1.0,0.625,1.0,-27.47,-39.07,749.92,-8122.56,16580.8,-25759.14,-4510.98,7857.02
321,0.648,0.0,1.0,1.0,1.0,-30.02,-44.37,1525.92,-11630.56,16412.8,-26499.14,-3990.98,10355.02
341,0.382,0.213,0.0,1.0,1.0,-31.96,-48.97,1933.92,-11986.56,16300.8,-23700.14,-745.98,13045.02
361,0.546,0.188,0.0,0.0,0.0,-33.46,-53.12,2161.92,-11934.56,15428.8,-21656.14,1989.02,16183.02
381,0.555,0.328,0.0,0.0,0.0,-34.45,-57.08,1341.92,-12538.56,15376.8,-21716.14,3773.02,19061.02
400,0.561,0.022,0.0,0.0,0.0,-35.42,-61.29,1273.92,-13014.56,14340.8,-23754.14,3542.02,20133.02
421,0.379,0.22,1.0,0.0,1.0,-36.36,-65.79,1409.92,-15758.56,13776.8,-25615.14,2112.02,21207.02
441,0.509,0.022,0.926,1.0,1.0,-37.33,-70.15,1309.92,-16198.56,12984.8,-25455.14,1312.02,22276.02
461,0.793,0.124,1.0,0.907,0.0,-38.16,-74.33,1669.92,-17934.56,11268.8,-23757.14,1658.02,23920.02
481,0.666,0.735,1.0,0.0,0.0,-38.74,-77.92,1821.92,-19106.56,11420.8,-21276.14,2633.02,26331.02
501,0.645,0.328,0.0,0.531,0.085,-39.31,-81.17,1529.92,-20034.56,11252.8,-19929.14,1876.02,28937.02
521,0.571,0.111,0.812,1.0,0.521,-40.02,-84.29,1393.92,-19594.56,10132.8,-19397.14,774.02,31331.02
541,0.638,0.309,1.0,0.0,0.0,-40.84,-87.54,1565.92,-20150.56,7976.8,-19497.14,-273.98,32953.02
561,0.453,0.309,1.0,1.0,0.93,-41.62,-90.93,581.92,-20818.56,6952.8,-20787.14,-1204.98,32953.02
581,0.382,0.296,0.755,0.195,0.057,-42.42,-94.25,-478.08,-20082.56,5708.8,-20452.14,-2227.98,32953.02
601,0.36,0.78,0.0,1.0,0.0,-43.22,-97.32,-1110.08,-19346.56,5152.8,-19513.14,-2865.98,32953.02
621,0.512,0.455,1.0,0.611,0.03,-44.01,-100.26,-2174.08,-17834.56,4824.8,-19319.14,-3399.98,32953.02
641,0.333,0.684,0.926,0.585,0.849,-44.8,-103.14,-3522.08,-16782.56,4200.8,-19391.14,-4557.98,32953.02
661,0.382,0.0,0.0,1.0,0.658,-45.59,-106.02,-4318.08,-16306.56,2864.8,-19063.14,-5539.98,32953.02
681,0.32,0.226,1.0,0.544,0.0,-46.26,-108.46,-5326.08,-13546.56,2944.8,-16646.14,-5093.98,32953.02
701,0.354,0.436,1.0,1.0,0.0,-46.69,-110.24,-6838.08,-11794.56,3244.8,-12958.14,-4740.98,32953.02
721,0.611,0.43,0.413,0.0,0.0,-46.77,-111.36,-8674.08,-10274.56,3192.8,-8661.14,-4401.98,32953.02
741,0.722,0.411,0.0,0.356,0.958,-46.57,-111.72,-9614.08,-7150.56,4020.8,-4088.14,-2863.98,32953.02
761,0.515,0.156,1.0,0.128,0.085,-45.52,-110.88,-11806.08,-4106.56,6180.8,161.86,-585.98,32953.02
781,0.441,0.067,0.0,0.517,0.63,-43.45,-108.85,-14930.08,-1958.56,8308.8,1606.86,-2807.98,32953.02
801,0.407,0.544,1.0,0.0,1.0,-41.62,-107.74,-14830.08,-326.56,6352.8,2376.86,-6662.98,32953.02
820,0.852,0.0,0.0,0.92,1.0,-40.74,-108.77,-13226.08,1869.44,4044.8,4568.86,-7514.98,32953.02
841,0.734,0.691,0.0,1.0,0.0,-40.06,-111.5,-12546.08,4025.44,3992.8,7927.86,-4816.98,32953.02
861,0.475,0.372,0.0,1.0,0.0,-37.61,-97.27,-14586.08,6261.44,3524.8,7654.86,-3118.98,32953.02
881,0.731,0.43,0.0,1.0,1.0,-36.15,-84.55,-13602.08,8181.44,2656.8,4571.86,-2705.98,32953.02
900,0.839,0.939,1.0,0.0,1.0,-35.11,-72.86,-12330.08,9201.44,1836.8,719.86,-779.98,32953.02
921,1.0,0.194,0.0,1.0,1.0,-33.74,-62.49,-13242.08,11045.44,1852.8,-2464.14,-763.98,25232.02
940,1.0,0.379,0.128,0.0,0.139,-32.29,-52.91,-14826.08,14325.44,-155.2,-5295.14,-2039.98,17554.02
961,1.0,1.0,0.0,1.0,0.0,-31.08,-44.23,-15358.08,15141.44,-699.2,-9324.14,-4014.98,10098.02
981,1.0,0.952,1.0,1.0,0.0,-29.62,-36.35,-16534.08,14761.44,-1107.2,-13758.14,-3949.98,3657.02
1001,1.0,1.0,0.356,1.0,0.139,-27.5,-29.59,-19486.08,16501.44,844.8,-15848.14,-2840.98,-1082.98
1021,1.0,1.0,0.0,1.0,1.0,-25.16,-23.39,-23242.08,18409.44,3556.8,-13590.14,-4199.98,-4126.98
1041,1.0,0.913,1.0,1.0,0.958,-22.93,-17.1,-24806.08,17513.44,5488.8,-8911.14,-6782.98,-5385.98
1061,1.0,0.901,1.0,0.477,1.0,-20.68,-10.25,-27306.08,17585.44,6664.8,-1831.14,-8203.98,-6174.98
1081,1.0,0.423,0.0,1.0,0.0,-18.25,-2.94,-28962.08,17225.44,7080.8,3876.86,-7907.98,-6932.98
1100,1.0,0.334,1.0,0.974,0.357,-15.42,4.36,-31226.08,16557.44,7708.8,6831.86,-6534.98,-6886.98
1120,1.0,0.226,0.0,1.0,1.0,-12.29,11.33,-32742.08,15333.44,7936.8,7359.86,-5550.98,-6344.98
1140,1.0,0.831,0.0,0.209,0.33,-8.83,17.76,-33574.08,13493.44,7624.8,5442.86,-4499.98,-4904.98
1160,1.0,0.926,0.356,1.0,0.903,-4.99,23.75,-33742.08,11725.44,6972.8,3225.86,-2739.98,-2632.98
1180,1.0,0.837,0.0,1.0,0.685,-0.93,29.71,-33522.08,11221.44,5992.8,1970.86,-717.98,-797.98
1200,1.0,0.181,1.0,1.0,1.0,3.22,35.33,-33462.08,10865.44,5804.8,737.86,549.02,1346.02
1220,1.0,0.818,0.413,1.0,0.085,7.11,40.79,-31810.08,11341.44,5424.8,264.86,795.02,3294.02
1240,1.0,0.0,0.47,0.517,0.0,10.8,46.08,-30526.08,11057.44,5004.8,-627.14,675.02,4785.02
1260,1.0,0.729,1.0,0.356,0.0,14.34,51.55,-29238.08,10889.44,4788.8,1467.86,995.02,5826.02
1280,1.0,0.633,0.128,0.813,0.0,17.65,57.03,-28238.08,11465.44,4252.8,2000.86,1471.02,6276.02
1300,0.991,0.792,0.0,0.0,0.0,20.74,61.97,-27290.08,11601.44,4432.8,553.86,1448.02,6172.02
1320,0.978,0.659,1.0,1.0,0.0,23.67,66.85,-25846.08,10909.44,4092.8,95.86,1407.02,5470.02
1340,1.0,0.512,0.242,0.665,0.0,26.55,71.94,-24330.08,9817.44,3344.8,-288.14,1987.02,4113.02
1360,0.774,0.022,1.0,0.0,1.0,29.38,76.84,-23630.08,9853.44,3108.8,-661.14,3182.02,3344.02
1380,0.858,0.0,1.0,1.0,0.876,32.24,81.47,-23462.08,9593.44,3152.8,-1357.14,3988.02,2663.02
1400,0.95,0.43,1.0,0.692,0.494,34.86,85.68,-22842.08,9681.44,3460.8,-1932.14,3558.02,1770.02
1420,1.0,0.691,0.0,1.0,0.958,37.16,89.84,-22070.08,9537.44,3284.8,-1635.14,2797.02,940.02
1440,1.0,1.0,1.0,1.0,1.0,39.25,94.13,-21818.08,9269.44,2816.8,-1215.14,2341.02,-553.98
1460,0.987,0.06,0.0,1.0,0.0,41.37,98.34,-22158.08,9093.44,2756.8,-964.14,2676.02,-2267.98
1480,0.811,1.0,1.0,0.517,0.0,43.56,102.24,-22918.08,9017.44,3040.8,-1147.14,2757.02,-3539.98
1500,1.0,1.0,1.0,1.0,0.0,45.66,105.93,-23798.08,9005.44,3280.8,-684.14,1943.02,-3982.98
1520,1.0,0.137,0.0,1.0,1.0,47.52,109.7,-24634.08,8949.44,3088.8,420.86,462.02,-4073.98
1540,1.0,0.43,1.0,1.0,0.0,49.15,113.33,-25422.08,9413.44,3092.8,1541.86,-648.98,-3954.98
1560,0.892,0.0,0.0,1.0,0.0,50.64,116.78,-26434.08,9917.44,2964.8,1914.86,-1086.98,-4051.98
1580,1.0,1.0,1.0,0.732,0.958,52.11,120.01,-27326.08,9889.44,2768.8,1153.86,-1146.98,-4169.98
1600,0.66,0.385,0.0,1.0,0.0,53.59,122.85,-28274.08,10289.44,3176.8,1080.86,-975.98,-3659.98
1620,0.95,1.0,0.014,0.155,0.0,55.08,125.55,-29014.08,9917.44,3456.8,1448.86,-1339.98,-2813.98
1641,0.889,0.022,0.0,1.0,0.385,56.39,128.08,-29106.08,10189.44,3624.8,2101.86,-1940.98,-2230.98
1661,1.0,0.773,1.0,0.0,1.0,57.58,130.63,-28966.08,10577.44,3084.8,2260.86,-1731.98,-1691.98
1680,0.916,0.43,1.0,0.934,0.0,58.79,133.11,-28430.08,10633.44,2492.8,1444.86,-589.98,-1745.98
1700,1.0,0.347,0.0,0.0,1.0,60.09,134.49,-28566.08,10805.44,3364.8,-2931.14,21.02,-1610.98
1720,0.873,1.0,0.47,1.0,0.0,61.44,136.21,-28558.08,10001.44,3608.8,-319.14,-53.98,-1507.98
1740,1.0,1.0,1.0,0.0,1.0,62.58,138.08,-28038.08,9901.44,3404.8,753.86,-850.98,-1194.98
1760,0.932,0.882,0.812,1.0,1.0,63.58,139.72,-27890.08,10073.44,3716.8,976.86,-1325.98,-653.98
1780,0.768,0.169,0.128,1.0,0.0,64.55,141.59,-27166.08,9797.44,3272.8,1737.86,-983.98,-203.98
1800,0.876,0.621,0.0,1.0,0.0,65.5,143.17,-27178.08,10113.44,3268.8,960.86,-438.98,-82.98
1820,0.793,0.837,0.0,1.0,0.0,66.5,144.44,-27286.08,10141.44,3440.8,14.86,163.02,-223.98
1840,0.867,0.0,1.0,0.0,0.0,67.55,145.56,-27490.08,9797.44,3484.8,-727.14,308.02,-259.98
1860,0.932,0.309,0.0,0.0,1.0,68.49,146.68,-27310.08,9593.44,3460.8,-555.14,-164.98,-286.98
1880,0.963,0.767,0.0,0.705,0.849,69.28,147.81,-26942.08,9873.44,3276.8,-54.14,-284.98,-109.98
1900,0.762,0.621,1.0,0.746,0.548,70.09,148.8,-27062.08,9741.44,3456.8,-122.14,-93.98,10.02
1920,0.978,0.748,1.0,1.0,0.0,70.92,149.67,-27182.08,9521.44,3616.8,-349.14,-93.98,32.02
1940,0.929,0.894,1.0,0.0,1.0,71.69,150.48,-27306.08,9573.44,3588.8,-215.14,-165.98,-25.98
1960,0.688,0.277,1.0,0.531,0.0,72.43,151.31,-27238.08,9453.44,3532.8,43.86,-206.98,-109.98
1980,1.0,0.627,1.0,1.0,0.658,73.13,151.97,-27422.08,9613.44,3760.8,276.86,-175.98,-104.98
2000,1.0,1.0,1.0,0.826,0.0,73.74,152.61,-27154.08,9773.44,3580.8,265.86,-154.98,-126.98
2019,1.0,0.207,1.0,0.0,0.0,74.35,153.2,-27182.08,9825.44,3524.8,267.86,203.02,40.02
2040,0.75,0.742,1.0,0.947,0.93,74.99,153.66,-27394.08,9853.44,3612.8,72.86,461.02,-77.98
2059,0.876,0.232,1.0,1.0,0.0,75.56,154.06,-27486.08,9785.44,3616.8,-50.14,178.02,-201.98
2080,0.991,0.665,0.527,1.0,1.0,76.01,154.45,-27238.08,9817.44,3656.8,409.86,-263.98,-321.98
2100,0.725,0.716,0.0,1.0,0.0,76.35,154.8,-27086.08,10053.44,3656.8,827.86,-531.98,-492.98
2120,0.941,1.0,1.0,0.947,0.112,76.64,155.18,-26746.08,10205.44,3508.8,1119.86,-310.98,-691.98
2140,0.892,0.532,1.0,1.0,1.0,77.03,155.48,-27010.08,10073.44,3568.8,965.86,331.02,-822.98
2160,0.882,0.633,0.584,1.0,0.0,77.5,155.62,-27438.08,9793.44,3740.8,347.86,437.02,-926.98
2180,0.978,1.0,1.0,0.209,0.521,77.93,155.82,-27474.08,9353.44,3596.8,-29.14,40.02,-1051.98
2200,0.827,0.493,0.0,0.96,0.0,78.32,156.1,-27402.08,9145.44,3548.8,335.86,-196.98,-932.98
2220,1.0,1.0,1.0,0.37,1.0,78.69,156.38,-27402.08,9201.44,3556.8,830.86,-99.98,-463.98
2240,0.83,0.105,0.698,1.0,1.0,79.05,156.61,-27546.08,9265.44,3540.8,813.86,4.02,-308.98
2259,1.0,0.557,1.0,1.0,0.385,79.37,156.7,-27486.08,9461.44,3576.8,513.86,122.02,-401.98
2279,1.0,1.0,1.0,0.195,1.0,79.72,156.77,-27426.08,9129.44,3548.8,81.86,210.02,-562.98
2300,0.7,0.016,1.0,0.303,1.0,80.01,156.78,-27330.08,9357.44,3512.8,222.86,306.02,-594.98
2320,0.855,0.729,0.356,0.732,0.0,80.29,156.93,-27362.08,9205.44,3248.8,380.86,341.02,-483.98
2340,0.682,1.0,0.584,1.0,0.903,80.53,157.05,-27170.08,9413.44,3064.8,261.86,668.02,-439.98
2360,0.963,1.0,0.0,1.0,0.821,80.8,157.02,-27562.08,9505.44,3060.8,-346.14,965.02,-683.98
2380,1.0,0.792,0.0,0.101,0.0,81.07,156.79,-27818.08,9285.44,3548.8,-554.14,496.02,-836.98
2400,0.697,1.0,1.0,1.0,1.0,81.25,156.86,-27494.08,8865.44,3160.8,-193.14,-8.98,-359.98
2420,0.975,0.85,0.0,1.0,0.085,81.4,156.87,-27682.08,9021.44,3160.8,-39.14,31.02,-177.98
2440,1.0,0.996,1.0,0.0,1.0,81.56,156.82,-27882.08,8945.44,3352.8,121.86,-79.98,-328.98
2460,0.833,0.805,1.0,1.0,1.0,81.67,156.72,-27774.08,8997.44,3420.8,270.86,-220.98,-137.98
2480,0.87,0.423,1.0,1.0,1.0,81.72,156.69,-27674.08,9021.44,3184.8,265.86,-311.98,-15.98
2500,0.777,0.347,1.0,1.0,0.0,81.79,156.46,-27798.08,8957.44,3648.8,349.86,-510.98,-83.98
2520,1.0,0.843,1.0,1.0,0.0,81.71,156.23,-27178.08,9349.44,3552.8,788.86,-703.98,235.02
2540,0.626,1.0,0.0,1.0,0.0,81.76,156.09,-27550.08,9077.44,3496.8,970.86,-137.98,922.02
2560,0.645,0.754,1.0,1.0,0.0,81.76,155.73,-27494.08,9397.44,3496.8,163.86,-125.98,594.02
2580,0.873,0.818,0.0,0.947,0.467,81.74,155.32,-27206.08,9409.44,3436.8,-250.14,16.02,180.02
2600,0.981,1.0,0.0,1.0,1.0,81.8,154.91,-27478.08,9249.44,3532.8,-152.14,325.02,407.02
2620,0.787,0.602,1.0,0.531,0.0,81.83,154.53,-27478.08,9121.44,3428.8,-333.14,191.02,315.02
2640,0.929,0.258,0.0,1.0,0.0,81.78,154.22,-27246.08,9145.44,3296.8,-99.14,-94.98,78.02
2660,0.91,0.016,1.0,0.772,0.0,81.73,153.91,-27326.08,9245.44,3400.8,401.86,-81.98,176.02
2680,1.0,0.0,1.0,0.0,0.0,81.66,153.48,-27314.08,9469.44,3620.8,591.86,-11.98,323.02
2700,0.623,0.589,0.0,1.0,0.958,81.6,153.09,-27266.08,9273.44,3464.8,256.86,84.02,213.02
2720,0.991,0.296,0.0,0.759,0.0,81.59,152.66,-27334.08,9269.44,3512.8,202.86,365.02,170.02
2740,0.873,1.0,1.0,1.0,1.0,81.56,152.17,-27406.08,9357.44,3588.8,195.86,286.02,36.02
2760,0.83,0.633,1.0,0.289,1.0,81.5,151.73,-27302.08,9213.44,3496.8,28.86,176.02,40.02
2780,0.932,0.283,0.0,1.0,0.821,81.44,151.27,-27462.08,9277.44,3548.8,235.86,140.02,29.02
2800,0.923,0.442,0.0,1.0,1.0,81.36,150.85,-27526.08,9005.44,3524.8,54.86,-144.98,52.02
2820,1.0,0.589,0.0,1.0,0.712,81.25,150.6,-27298.08,8937.44,3224.8,236.86,-153.98,253.02
2840,0.855,0.92,0.0,1.0,0.0,81.13,150.2,-27426.08,9393.44,3396.8,599.86,110.02,261.02
2860,0.947,0.831,0.0,1.0,0.0,81.02,149.81,-27234.08,9309.44,3284.8,198.86,238.02,63.02
2880,0.83,1.0,1.0,0.007,0.0,80.92,149.34,-27210.08,9301.44,3400.8,33.86,365.02,-68.98
2900,0.867,0.092,0.0,1.0,0.003,80.79,148.88,-27298.08,9409.44,3296.8,42.86,273.02,-98.98
2920,1.0,0.493,0.0,0.0,0.0,80.63,148.56,-27330.08,9141.44,3100.8,24.86,-8.98,-164.98
2940,1.0,0.43,0.926,1.0,0.0,80.45,148.21,-27294.08,9193.44,3228.8,287.86,-165.98,-111.98
2960,1.0,0.665,0.0,0.907,0.849,80.24,147.81,-27234.08,9389.44,3244.8,331.86,-124.98,-90.98
2980,0.756,0.557,0.413,0.061,0.003,80.1,147.39,-27486.08,9233.44,3288.8,112.86,-7.98,-142.98
