timestamp,flex_1,flex_2,flex_3,flex_4,flex_5,kalman_pitch,kalman_roll,acc_x,acc_y,acc_z,gyro_x,gyro_y,gyro_z
0,0.74,0.689,0.0,0.33,0.0,143.48,97.87,-367.52,-1703.44,15459.68,220.86,1716.0,-2185.7
19,0.842,0.0,0.304,0.0,0.0,97.41,64.94,-203.52,-1799.44,15691.68,1198.86,2785.0,-2070.7
39,0.8,0.102,0.0,0.071,0.0,69.7,44.83,-987.52,-1839.44,15887.68,1061.86,3691.0,-2811.7
59,1.0,0.0,0.007,0.0,0.0,51.1,31.05,-883.52,-2327.44,16343.68,511.86,3650.0,-3765.7
79,0.829,0.359,1.0,0.293,0.0,37.1,21.45,-339.52,-1647.44,16227.68,956.86,2640.0,-3866.7
99,1.0,0.0,0.0,0.972,0.0,26.18,14.39,-603.52,-915.44,16327.68,-441.14,923.0,-3347.7
119,0.842,0.247,0.0,0.0,0.0,17.6,7.24,-1587.52,-2471.44,15763.68,-5453.14,-1781.0,-3065.7
139,0.794,0.142,1.0,0.104,0.0,10.42,-1.28,-987.52,-6383.44,13883.68,-10837.14,-4463.0,-5445.7
159,0.89,0.0,0.0,0.287,1.0,4.12,-8.97,-879.52,-6659.44,13315.68,-12582.14,-6023.0,-8217.7
179,0.74,0.0,1.0,0.476,0.0,-1.69,-16.39,-1335.52,-7371.44,12543.68,-15373.14,-9884.0,-8737.7
199,0.817,1.0,0.0,0.373,0.0,-6.93,-24.07,748.48,-10171.44,10675.68,-17249.14,-9932.0,-7475.7
220,0.504,0.0,0.0,0.26,0.0,-10.58,-30.99,-415.52,-12947.44,10551.68,-16436.14,-6686.0,-5538.7
240,0.206,0.448,0.007,0.643,0.0,-13.39,-37.11,-1847.52,-12887.44,9719.68,-14314.14,-4939.0,-1762.7
259,0.253,0.0,0.167,0.0,0.0,-15.86,-42.54,-903.52,-14043.44,9411.68,-12766.14,-3905.0,2943.3
279,0.094,0.359,1.0,0.492,1.0,-17.96,-47.47,-619.52,-16091.44,9651.68,-12555.14,-3766.0,7891.3
299,0.226,0.214,0.236,0.352,0.0,-19.97,-52.21,-87.52,-16275.44,9043.68,-13282.14,-3802.0,11208.3
319,0.291,0.198,0.236,0.255,0.0,-21.85,-57.06,-91.52,-15955.44,8111.68,-15559.14,-3690.0,13404.3
339,0.297,0.214,0.0,0.611,0.0,-23.64,-62.08,88.48,-17139.44,7851.68,-18715.14,-4383.0,14683.3
359,0.291,0.818,0.899,0.152,0.0,-25.52,-67.23,980.48,-16987.44,6803.68,-20856.14,-5031.0,14845.3
379,0.365,0.367,0.0,1.0,0.0,-27.48,-72.87,2576.48,-16519.44,5151.68,-24781.14,-4931.0,14222.3
399,0.156,0.367,0.396,0.568,0.549,-29.38,-78.99,2392.48,-16883.44,4235.68,-29610.14,-5639.0,14409.3
420,0.448,0.907,0.0,0.352,0.0,-31.45,-85.11,2224.48,-18051.44,3915.68,-32071.14,-8406.0,15798.3
440,0.286,0.448,0.693,0.044,1.0,-33.92,-90.93,3096.48,-17079.44,2643.68,-30988.14,-11028.0,16802.3
460,0.357,0.118,0.0,0.169,0.194,-36.63,-96.29,4200.48,-16367.44,1263.68,-28722.14,-12729.0,17276.3
480,0.255,0.722,1.0,0.26,0.244,-39.38,-101.13,3624.48,-15775.44,1351.68,-27144.14,-14151.0,17615.3
500,0.216,0.842,0.419,0.228,0.0,-42.27,-105.8,3212.48,-14267.44,499.68,-26610.14,-15986.0,18046.3
520,0.525,0.0,0.0,0.0,1.0,-45.13,-110.45,2844.48,-13899.44,-868.32,-26697.14,-17160.0,18086.3
540,0.521,0.0,0.0,0.195,0.0,-47.8,-114.83,2668.48,-14559.44,-1400.32,-26450.14,-17526.0,16554.3
560,0.28,0.424,1.0,0.018,0.836,-50.46,-119.19,3072.48,-12995.44,-2708.32,-26056.14,-17798.0,14686.3
580,0.326,0.126,0.0,0.201,0.481,-53.07,-123.44,2968.48,-12367.44,-2748.32,-26640.14,-18400.0,13917.3
600,0.204,0.0,0.0,0.0,0.0,-57.25,-113.82,4676.48,24104.56,-20536.32,-32386.14,-34019.0,22132.3
620,0.264,0.214,0.0,0.212,1.0,-62.0,-118.87,3260.48,-4775.44,1291.68,-32386.14,-29830.0,15582.3
640,0.376,0.0,0.0,0.0,0.447,-64.11,-123.97,-4463.52,-6747.44,-4448.32,-28856.14,-24077.0,3657.3
659,0.413,0.0,0.0,0.4,0.0,-66.7,-123.97,156.48,-10247.44,-4484.32,1888.86,-25598.0,14614.3
679,0.394,0.158,1.0,0.427,0.0,-69.89,-124.44,-339.52,-7407.44,-4380.32,715.86,-29957.0,16921.3
700,0.367,0.0,0.0,0.0,0.616,-72.48,-125.2,-3155.52,-6907.44,-4040.32,-1416.14,-29622.0,17914.3
720,0.347,0.094,1.0,0.508,0.363,-75.19,-128.15,-3351.52,-4623.44,-4152.32,-14547.14,-30856.0,14949.3
740,0.363,0.029,1.0,0.799,1.0,-77.8,-132.07,-5163.52,-4131.44,-3492.32,-22489.14,-33133.0,13969.3
760,0.33,0.689,0.0,0.0,0.0,-79.65,-135.86,-7031.52,-4795.44,-4932.32,-22190.14,-32309.0,14516.3
780,0.421,0.0,0.03,0.0,0.0,-81.52,-139.1,-7167.52,-4475.44,-3272.32,-21214.14,-33114.0,13752.3
800,0.202,0.456,0.0,0.88,0.498,-83.12,-141.85,-8267.52,-3139.44,-2516.32,-18376.14,-33235.0,13356.3
820,0.268,0.07,0.0,0.449,1.0,-84.12,-143.56,-9979.52,-1447.44,-1328.32,-11455.14,-32285.0,13202.3
840,0.38,0.0,1.0,0.0,1.0,-84.45,-144.28,-11639.52,-447.44,-488.32,-4807.14,-31797.0,13182.3
860,0.351,0.247,0.0,0.546,0.0,-84.89,-145.47,-10519.52,2368.56,-676.32,-2103.14,-30034.0,12339.3
880,0.347,0.0,1.0,0.0,0.0,-85.3,-147.25,-10599.52,3956.56,1215.68,-3713.14,-29098.0,11305.3
900,0.39,0.77,0.0,1.0,0.0,-83.76,-131.03,-13047.52,5544.56,3295.68,-6058.14,-28401.0,10737.3
920,0.386,0.0,0.0,0.169,1.0,-81.36,-117.0,-13811.52,7108.56,3587.68,-6697.14,-26687.0,10078.3
939,0.427,0.198,0.533,0.0,0.0,-78.64,-103.57,-13731.52,7112.56,3191.68,-8813.14,-23034.0,7949.3
959,0.266,0.544,0.0,0.0,0.058,-73.72,-90.95,-15027.52,6564.56,4643.68,-9426.14,-18870.0,4013.3
979,0.423,0.947,0.304,0.163,0.0,-67.2,-82.3,-17891.52,6388.56,6587.68,-7698.14,-16262.0,1097.3
999,0.17,0.255,0.693,0.47,0.0,-61.23,-76.41,-19295.52,6268.56,8135.68,-6011.14,-16554.0,-985.7
1019,0.284,0.07,0.0,0.0,0.0,-56.02,-69.59,-20931.52,8536.56,9667.68,-4944.14,-16285.0,-2313.7
1040,0.374,0.0,0.0,0.346,0.0,-50.75,-62.62,-22211.52,9724.56,10039.68,-4465.14,-14098.0,-3965.7
1060,0.311,0.0,1.0,0.018,0.0,-45.18,-56.12,-27095.52,11220.56,12827.68,-3269.14,-10539.0,-4356.7
1079,0.55,0.0,0.0,0.0,1.0,-39.19,-50.5,-30171.52,9592.56,15607.68,-1233.14,-6638.0,-5702.7
1099,0.703,0.0,1.0,0.497,0.0,-33.03,-44.57,-31983.52,10080.56,15499.68,1447.86,-4695.0,-7295.7
1119,0.405,0.0,0.121,0.082,0.0,-26.47,-38.43,-35163.52,10744.56,15679.68,3477.86,-1274.0,-8406.7
1139,0.57,0.327,0.716,0.044,0.464,-19.5,-32.8,-38703.52,9724.56,17047.68,4683.86,2820.0,-7956.7
1159,0.262,0.0,0.0,0.692,0.0,-12.51,-27.52,-40819.52,9236.56,19023.68,5709.86,5317.0,-6564.7
1179,0.295,0.0,0.0,0.19,0.0,-5.59,-22.67,-41675.52,8596.56,18611.68,5221.86,6259.0,-4824.7
1199,0.423,0.786,0.0,0.341,0.0,1.12,-18.68,-41635.52,6496.56,18043.68,4117.86,6303.0,-3258.7
1219,0.575,0.134,0.625,0.19,0.0,7.48,-15.02,-40319.52,5484.56,17407.68,4925.86,5789.0,-1786.7
1239,0.376,0.206,0.007,0.449,0.0,13.68,-10.86,-38115.52,6700.56,15759.68,6981.86,6025.0,-32.7
1259,0.289,0.214,0.0,0.249,0.0,20.05,-6.35,-36359.52,7816.56,13383.68,6743.86,8024.0,1035.3
1279,0.442,0.214,0.0,0.568,0.988,26.62,-2.08,-35555.52,8056.56,12263.68,4646.86,10754.0,1584.3
1299,0.56,0.013,0.625,0.379,1.0,33.28,2.17,-34755.52,8456.56,10983.68,2653.86,12816.0,2165.3
1319,0.4,0.206,0.0,0.357,0.0,40.43,7.35,-32343.52,7356.56,7603.68,1799.86,15667.0,2481.3
1339,0.581,0.005,0.648,0.0,0.0,47.76,16.51,-30207.52,7016.56,4615.68,1501.86,19553.0,2187.3
1359,0.456,0.343,0.0,0.39,0.0,54.59,26.46,-26191.52,7320.56,-528.32,-207.14,25481.0,1339.3
1379,0.51,0.987,0.0,0.088,0.0,60.91,17.74,-22879.52,4036.56,-5004.32,-5173.14,31516.0,183.3
1399,0.332,0.528,0.0,0.406,0.0,67.21,9.07,-25467.52,1712.56,-4432.32,-11083.14,31516.0,877.3
1419,0.301,0.0,0.144,1.0,1.0,71.42,0.46,-22591.52,-419.44,-11556.32,-12266.14,26716.0,1784.3
1439,0.442,0.359,0.281,0.039,0.329,74.01,-7.62,-18347.52,-435.44,-16812.32,-9270.14,22542.0,1717.3
1459,0.945,0.214,0.0,0.018,0.0,75.13,-14.53,-17663.52,-4163.44,-19616.32,-5234.14,14813.0,2053.3
1479,0.382,0.424,0.0,0.034,0.058,74.27,-21.1,-12523.52,-2295.44,-24820.32,-2150.14,5792.0,2259.3
1499,0.146,0.319,0.0,0.0,0.0,71.79,-27.27,-14023.52,-1551.44,-21720.32,-840.14,-6365.0,3255.3
1520,0.448,0.0,0.281,0.708,0.21,67.75,-33.16,-14131.52,-2471.44,-19792.32,-1214.14,-17775.0,1942.3
1539,0.541,0.601,0.0,0.546,0.566,62.29,-38.89,-12095.52,-547.44,-14804.32,-1070.14,-27098.0,376.3
1559,0.618,0.239,0.0,0.217,0.0,56.37,-44.66,-12215.52,2060.56,-12836.32,-482.14,-31904.0,2097.3
1579,0.347,0.0,0.0,0.373,0.0,50.34,-50.93,-11851.52,4132.56,-9344.32,-3405.14,-34019.0,2803.3
1599,0.726,0.045,0.281,0.0,0.0,44.35,-56.84,-10923.52,624.56,-5708.32,-8335.14,-34019.0,4284.3
1619,0.558,1.0,0.396,0.0,0.0,39.19,-61.78,-12847.52,1568.56,51.68,-6511.14,-34019.0,1379.3
1639,0.289,0.0,0.007,0.46,0.0,34.73,-66.01,-12935.52,4432.56,3079.68,2115.86,-33633.0,3068.3
1659,0.276,0.4,0.281,0.0,0.0,29.75,-55.26,-11975.52,6340.56,5767.68,4268.86,-31711.0,4795.3
1679,0.456,0.158,0.0,0.271,0.0,26.59,-50.46,-13839.52,7248.56,10223.68,393.86,-30521.0,4087.3
1699,0.456,0.319,1.0,0.568,1.0,23.76,-46.02,-14859.52,9548.56,12563.68,-3877.14,-28730.0,1785.3
1719,0.51,0.472,0.0,0.363,0.0,21.78,-42.09,-16535.52,10384.56,15591.68,-4474.14,-24665.0,153.3
1739,0.407,0.464,0.0,0.082,0.0,21.28,-38.22,-20063.52,10976.56,17275.68,-3469.14,-18673.0,-328.7
1759,0.595,0.818,0.0,1.0,0.0,21.93,-34.27,-23503.52,14096.56,19879.68,-3999.14,-11794.0,-571.7
1779,0.421,0.0,1.0,0.282,0.0,23.5,-31.29,-26319.52,12928.56,22803.68,-6859.14,-6294.0,-1343.7
1799,0.369,0.0,0.121,0.411,0.0,25.72,-29.25,-29239.52,9476.56,23155.68,-8835.14,-3619.0,-2658.7
1819,0.49,0.689,0.0,0.0,0.295,28.17,-27.61,-31363.52,6084.56,23843.68,-7190.14,-2364.0,-3277.7
1839,0.465,1.0,0.0,0.88,1.0,30.84,-25.41,-32467.52,4736.56,23975.68,-1391.14,-645.0,-3378.7
1859,0.409,0.408,0.922,1.0,1.0,34.0,-22.45,-33975.52,5608.56,22895.68,3433.86,2256.0,-3433.7
1879,0.411,1.0,0.0,0.0,0.0,37.37,-19.6,-34347.52,5204.56,21559.68,4056.86,3691.0,-3128.7
1899,0.454,0.198,1.0,0.864,0.0,40.67,-17.0,-33915.52,5088.56,20019.68,3506.86,3530.0,-2404.7
1919,0.394,0.0,0.0,0.454,0.0,44.11,-14.5,-33279.52,5640.56,16659.68,2643.86,3433.0,-1747.7
1939,0.485,0.73,0.0,0.239,1.0,47.59,-11.82,-31979.52,6412.56,14243.68,2652.86,3341.0,-556.7
1959,0.328,0.19,0.0,0.255,0.0,50.9,-9.74,-30351.52,6376.56,13231.68,-933.14,2832.0,-65.7
1979,0.409,0.086,0.167,0.061,0.836,54.3,-8.21,-29795.52,5556.56,11835.68,-1783.14,3330.0,80.3
1999,0.459,0.0,1.0,0.303,0.126,57.48,-7.36,-29463.52,4512.56,11375.68,-2049.14,2527.0,98.3
2019,0.396,0.134,0.0,0.708,0.0,60.27,-6.14,-28711.52,4852.56,11075.68,-327.14,746.0,487.3
2039,0.318,0.617,0.0,0.352,0.075,62.64,-3.85,-26899.52,6368.56,10859.68,1020.86,-826.0,694.3
2059,0.446,0.0,1.0,0.487,1.0,64.85,-1.22,-26167.52,7128.56,10235.68,63.86,-1450.0,766.3
2079,0.336,0.158,0.0,0.212,0.363,66.99,0.83,-25619.52,6564.56,10179.68,-744.14,-1251.0,698.3
2099,0.365,0.593,0.0,0.357,0.0,69.2,2.75,-25323.52,6288.56,9875.68,-55.14,-496.0,486.3
2119,0.39,0.0,0.213,0.508,0.0,71.27,5.12,-25491.52,6976.56,10223.68,837.86,-63.0,420.3
2139,0.409,0.0,0.0,0.0,0.0,73.36,7.67,-25619.52,7324.56,9795.68,419.86,388.0,499.3
2159,0.214,0.0,0.0,1.0,0.0,75.44,9.77,-25643.52,6944.56,9799.68,-201.14,796.0,560.3
2179,0.384,0.0,0.0,0.158,0.0,77.47,11.65,-25731.52,6784.56,10027.68,100.86,1329.0,632.3
2199,0.539,0.0,0.0,0.449,1.0,79.44,13.61,-26191.52,7084.56,10191.68,143.86,1837.0,617.3
2219,0.139,0.078,0.0,0.713,0.0,81.42,15.35,-26507.52,6780.56,9879.68,136.86,1933.0,527.3
2239,0.357,0.44,0.442,0.363,0.075,83.25,16.89,-27143.52,6548.56,9995.68,563.86,1473.0,601.3
2259,0.39,0.746,0.0,0.336,0.0,84.92,18.69,-27331.52,6968.56,9995.68,941.86,1176.0,541.3
2279,0.305,0.0,0.121,0.098,0.0,86.46,20.41,-27563.52,7164.56,10315.68,664.86,1212.0,549.3
2299,0.459,0.609,0.579,1.0,1.0,87.92,21.7,-27591.52,6752.56,10543.68,338.86,1363.0,494.3
2319,0.556,0.73,0.0,0.346,0.532,89.34,22.8,-27783.52,6528.56,10467.68,452.86,1452.0,454.3
2339,0.403,0.0,0.121,0.481,0.0,90.69,23.99,-27959.52,6656.56,10383.68,719.86,1411.0,608.3
2359,0.388,0.295,0.0,0.826,0.0,91.92,25.16,-27967.52,6736.56,10411.68,753.86,1183.0,826.3
2379,0.324,0.0,1.0,0.244,0.0,93.1,26.52,-27999.52,7072.56,10103.68,543.86,1114.0,965.3
2399,0.367,0.85,0.0,0.0,0.549,94.26,27.77,-27931.52,7032.56,9979.68,251.86,1386.0,974.3
2419,0.334,0.287,0.121,0.309,0.0,95.4,28.94,-27727.52,7000.56,9871.68,8.86,1694.0,960.3
2439,0.409,0.303,0.03,0.363,0.194,96.47,29.76,-28123.52,6740.56,10151.68,-229.14,1736.0,1055.3
2459,0.483,0.126,0.0,0.271,0.227,97.42,30.61,-28223.52,6796.56,9955.68,-299.14,1241.0,1055.3
2479,0.355,0.0,0.693,0.568,0.0,98.22,31.49,-28039.52,6876.56,9935.68,-104.14,679.0,1118.3
2499,0.4,0.472,0.693,0.303,0.0,98.9,32.34,-27807.52,6852.56,9923.68,92.86,265.0,847.3
2519,0.313,0.126,0.304,0.686,0.0,99.46,33.28,-27647.52,7056.56,10035.68,292.86,145.0,568.3
2539,0.421,0.0,0.0,0.104,0.0,99.97,34.19,-27495.52,7156.56,10079.68,206.86,168.0,312.3
2559,0.564,0.054,0.0,1.0,0.0,100.47,35.0,-27591.52,6968.56,9779.68,36.86,60.0,148.3
2579,0.432,0.0,0.0,0.346,0.0,100.9,35.76,-27627.52,7004.56,9839.68,29.86,-80.0,32.3
2599,0.459,0.0,0.236,0.239,0.0,101.3,36.33,-27559.52,6776.56,9731.68,-67.14,-195.0,-124.7
2619,0.543,0.134,0.0,0.287,1.0,101.6,36.75,-27547.52,6700.56,10011.68,58.86,-357.0,-268.7
2639,0.359,0.078,0.0,0.174,0.0,101.86,37.31,-27319.52,6840.56,9907.68,382.86,-345.0,-506.7
2659,0.405,0.118,1.0,0.282,0.227,102.04,37.92,-27247.52,7032.56,10099.68,471.86,-340.0,-658.7
2679,0.543,0.231,0.0,0.077,0.0,102.16,38.31,-27103.52,6912.56,10275.68,109.86,-303.0,-717.7
2699,0.485,0.214,1.0,0.158,1.0,102.34,38.55,-27295.52,6692.56,9935.68,-211.14,-207.0,-693.7
2719,0.378,0.73,0.0,0.497,0.244,102.53,38.68,-27435.52,6572.56,10047.68,-60.14,39.0,-629.7
2739,0.477,0.021,0.0,0.573,0.0,102.69,38.71,-27619.52,6432.56,10131.68,180.86,101.0,-600.7
2759,0.459,0.174,0.0,0.298,0.0,102.81,38.76,-27531.52,6428.56,10031.68,387.86,-60.0,-610.7
2779,0.369,0.384,0.0,0.233,0.0,102.88,38.96,-27475.52,6664.56,10111.68,630.86,-31.0,-441.7
2799,0.359,0.0,0.648,0.115,0.041,102.93,39.11,-27367.52,6616.56,10135.68,624.86,109.0,-343.7
2819,0.525,0.673,0.0,0.12,0.363,103.01,39.36,-27479.52,6776.56,10011.68,655.86,304.0,-133.7
2839,0.324,0.472,0.0,0.541,0.194,103.08,39.67,-27571.52,6952.56,9999.68,392.86,561.0,11.3
2859,0.651,0.73,0.716,1.0,0.0,103.15,39.98,-27655.52,7048.56,9903.68,2.86,585.0,201.3
2879,0.456,0.585,1.0,0.427,0.0,103.18,40.16,-27563.52,6916.56,9839.68,-253.14,395.0,233.3
2899,0.481,0.0,0.0,0.433,0.0,103.17,40.2,-27627.52,6728.56,9831.68,-112.14,207.0,293.3
2919,0.353,0.384,0.213,0.363,0.0,103.1,40.28,-27495.52,6784.56,9999.68,281.86,192.0,136.3
2939,0.4,0.0,0.625,0.357,0.0,103.01,40.64,-27411.52,7108.56,9859.68,630.86,201.0,57.3
2959,0.459,0.0,0.0,0.255,0.0,102.88,41.03,-27183.52,7240.56,9867.68,521.86,244.0,7.3
2979,0.434,0.07,1.0,1.0,0.836,102.76,41.21,-27307.52,7024.56,9859.68,171.86,238.0,23.3
