timestamp,flex_1,flex_2,flex_3,flex_4,flex_5,kalman_pitch,kalman_roll,acc_x,acc_y,acc_z,gyro_x,gyro_y,gyro_z
0,1.0,0.0,0.0,0.058,0.0,29.6,50.95,5169.28,-6416.56,19265.52,-668.74,642.38,-162.54
19,1.0,0.0,0.0,0.058,0.0,23.05,33.75,5061.28,-6084.56,19593.52,67.26,540.38,-223.54
41,1.0,0.0,0.0,0.053,0.0,19.71,25.07,4945.28,-5852.56,19777.52,-319.74,288.38,-272.54
61,1.0,0.0,0.0,0.098,0.0,17.63,19.53,4949.28,-5968.56,19897.52,-1046.74,372.38,-681.54
80,1.0,0.0,0.0,0.063,0.0,16.25,15.7,5125.28,-5928.56,19825.52,-1283.74,1597.38,-612.54
101,1.0,0.0,0.68,0.028,0.0,15.35,12.87,5057.28,-5872.56,19917.52,-1372.74,2167.38,-526.54
121,1.0,0.0,0.0,0.043,0.0,14.75,10.48,4729.28,-6152.56,19937.52,-1610.74,1731.38,-80.54
140,1.0,0.0,0.0,0.053,0.785,14.22,8.26,4753.28,-6864.56,19577.52,-1430.74,1163.38,151.46
161,1.0,0.0,0.0,0.063,0.0,13.9,6.1,4293.28,-7588.56,19409.52,-1443.74,706.38,1161.46
181,1.0,0.0,0.0,0.058,0.0,13.63,3.85,3681.28,-8692.56,19613.52,-1653.74,-554.62,830.46
200,1.0,0.0,0.0,0.078,0.0,13.24,2.37,4101.28,-7716.56,20357.52,-741.74,-238.62,475.46
220,1.0,0.0,0.0,0.048,0.0,12.94,1.02,4473.28,-7960.56,20641.52,-609.74,1002.38,836.46
241,1.0,0.0,0.0,0.018,0.0,12.69,-0.38,4753.28,-8728.56,21129.52,-636.74,1905.38,1398.46
261,1.0,0.0,0.025,0.048,0.36,13.04,-1.35,3413.28,-8292.56,22253.52,346.26,4005.38,2461.46
280,1.0,0.0,0.0,0.043,1.0,13.64,-1.85,1729.28,-7652.56,24077.52,1794.26,4283.38,3517.46
301,1.0,0.0,0.0,0.033,0.274,14.23,-1.84,833.28,-6752.56,25085.52,3687.26,3701.38,4082.46
321,1.0,0.0,0.0,0.058,0.0,15.03,-1.48,969.28,-5444.56,24737.52,4423.26,5585.38,4381.46
340,1.0,0.0,0.0,0.058,0.0,16.38,-1.25,813.28,-5192.56,24689.52,3342.26,9693.38,4128.46
360,1.0,0.0,0.0,0.043,0.0,18.16,-1.38,401.28,-5688.56,24229.52,1583.26,12640.38,3818.46
381,1.0,0.135,0.0,0.048,0.0,20.09,-1.61,141.28,-6480.56,23381.52,1877.26,13857.38,4761.46
401,1.0,0.104,0.0,0.078,0.0,22.12,-1.42,41.28,-6264.56,21973.52,4484.26,14666.38,6498.46
421,1.0,0.0,0.0,0.088,0.0,24.01,-0.78,-6.72,-5992.56,21669.52,7336.26,14350.38,7940.46
441,1.0,0.0,0.0,0.053,0.0,25.72,0.29,889.28,-5636.56,19741.52,10018.26,13993.38,8828.46
461,1.0,0.0,0.0,0.078,0.0,27.55,1.79,569.28,-4228.56,18477.52,11165.26,14412.38,8799.46
481,1.0,0.0,0.0,0.038,0.0,29.39,3.34,157.28,-3152.56,17749.52,10119.26,14333.38,8584.46
500,1.0,0.0,0.0,0.033,0.0,31.42,4.62,-1162.72,-3456.56,17129.52,9229.26,14270.38,8319.46
521,1.0,0.0,0.0,0.033,0.0,33.43,6.16,-1662.72,-2620.56,16561.52,9806.26,14057.38,8400.46
540,1.0,0.0,0.0,0.043,0.0,35.37,7.98,-678.72,-2172.56,15233.52,10845.26,14640.38,8493.46
561,1.0,0.0,0.107,0.038,0.0,37.33,9.9,245.28,-2360.56,14165.52,11898.26,15714.38,7817.46
581,1.0,0.0,0.0,0.068,0.0,39.34,11.9,-14.72,-2148.56,13781.52,12506.26,16310.38,7156.46
601,0.582,0.0,0.0,0.178,0.0,41.31,14.14,-498.72,-1256.56,13501.52,12874.26,16212.38,6705.46
621,0.881,0.0,0.0,0.433,0.0,43.39,16.5,-1086.72,-1072.56,12657.52,13289.26,16402.38,5824.46
640,1.0,0.003,0.0,0.268,0.0,45.46,18.86,-938.72,-1040.56,11829.52,13113.26,16449.38,5211.46
660,0.939,0.0,0.0,0.298,0.0,47.54,21.5,-1842.72,-388.56,11241.52,13759.26,16199.38,4280.46
681,1.0,0.0,0.0,0.513,0.0,49.45,24.62,-1918.72,351.44,10241.52,15014.26,15395.38,3708.46
700,1.0,0.0,0.0,0.268,0.0,51.28,28.23,-1454.72,747.44,8805.52,15990.26,15270.38,3071.46
721,1.0,0.0,0.0,0.453,0.0,53.01,31.91,-2062.72,903.44,8433.52,16598.26,14515.38,2819.46
741,1.0,0.0,0.0,0.033,0.0,54.14,36.06,-1866.72,3419.44,7845.52,16796.26,13712.38,2700.46
761,1.0,0.0,0.0,0.018,0.0,55.21,40.13,-1878.72,3023.44,6621.52,15307.26,12823.38,2059.46
780,1.0,0.0,0.0,0.033,0.0,56.19,43.79,-2054.72,3055.44,6281.52,13016.26,12468.38,716.46
801,1.0,0.018,0.0,0.103,0.274,56.85,46.83,-1870.72,3863.44,6741.52,10315.26,11984.38,-349.54
820,1.0,0.0,0.0,0.033,0.0,57.27,49.34,-2366.72,3231.44,6157.52,6772.26,9289.38,-1282.54
841,1.0,0.0,0.0,0.043,0.0,57.56,51.72,-2786.72,3135.44,5509.52,5094.26,7837.38,-1893.54
860,1.0,0.0,0.0,0.043,0.0,57.4,54.07,-1914.72,3123.44,4769.52,3848.26,5768.38,-1899.54
881,1.0,0.0,0.0,0.028,0.0,57.17,56.77,-1162.72,1903.44,3533.52,3706.26,4439.38,-1869.54
900,1.0,0.0,0.0,0.048,0.0,56.57,59.43,213.28,2207.44,3445.52,4002.26,4182.38,-1654.54
920,1.0,0.0,0.0,0.0,0.0,56.0,61.79,-86.72,3151.44,3509.52,3001.26,5076.38,-1845.54
939,1.0,0.0,0.0,0.008,0.0,55.66,63.76,-1178.72,2743.44,3701.52,1376.26,4656.38,-2194.54
961,1.0,0.0,0.0,0.033,0.0,55.25,65.8,-2122.72,2387.44,3073.52,674.26,2503.38,-2488.54
980,1.0,0.0,0.0,0.033,0.0,54.86,68.08,-7290.72,4303.44,1805.52,576.26,403.38,-1980.54
1000,1.0,0.0,0.0,0.033,0.0,54.32,69.99,-10462.72,6355.44,2297.52,138.26,-984.62,840.46
1021,1.0,0.0,0.0,0.0,0.0,53.52,71.24,-5426.72,4687.44,4049.52,-601.74,-1157.62,3383.46
1041,1.0,0.0,0.0,0.033,0.0,52.61,72.37,-3014.72,2607.44,4181.52,-546.74,-2467.62,4121.46
1060,1.0,0.0,0.0,0.033,0.0,51.54,73.85,-3158.72,3407.44,3985.52,1574.26,-3065.62,3868.46
1081,1.0,0.0,0.0,0.028,0.0,50.49,75.65,-3986.72,4787.44,3137.52,2465.26,-2557.62,3167.46
1099,1.0,0.0,0.0,0.028,0.0,49.57,76.94,-3826.72,4943.44,3865.52,1000.26,-1800.62,2191.46
1121,1.0,0.0,0.0,0.033,0.0,48.81,77.85,-4706.72,4467.44,4365.52,-160.74,-2309.62,1368.46
1140,1.0,0.0,0.0,0.028,0.0,48.15,78.87,-5122.72,4379.44,3549.52,-858.74,-2387.62,891.46
1161,1.0,0.0,0.0,0.023,0.0,47.58,79.76,-4542.72,4427.44,3765.52,-1002.74,-1440.62,608.46
1181,1.0,0.0,0.0,0.033,0.0,47.25,80.69,-4986.72,3831.44,3813.52,-363.74,-1056.62,727.46
1201,1.0,0.0,0.0,0.033,0.274,46.97,81.77,-5258.72,3851.44,3889.52,1178.26,-1135.62,740.46
1220,1.0,0.0,0.0,0.0,0.0,46.67,82.89,-5278.72,4415.44,3849.52,1741.26,-753.62,598.46
1240,1.0,0.0,0.0,0.008,0.0,46.38,83.91,-5042.72,4483.44,3701.52,1050.26,-668.62,348.46
1260,1.0,0.0,0.0,0.023,0.0,46.19,84.91,-4886.72,4287.44,3501.52,842.26,-107.62,152.46
1280,1.0,0.0,0.0,0.023,0.0,46.05,85.86,-4790.72,4323.44,3557.52,974.26,223.38,-133.54
1300,1.0,0.0,0.0,0.0,0.0,46.03,86.81,-4854.72,4179.44,3337.52,793.26,711.38,-375.54
1320,1.0,0.0,0.0,0.048,0.0,46.08,87.7,-4798.72,3823.44,3333.52,715.26,854.38,-508.54
1340,1.0,0.0,0.0,0.033,0.0,46.09,88.58,-4882.72,3755.44,3237.52,645.26,470.38,-544.54
1360,1.0,0.0,0.0,0.033,0.274,46.07,89.35,-4826.72,3587.44,3485.52,777.26,6.38,-478.54
1380,1.0,0.0,0.0,0.023,0.0,45.97,90.09,-4370.72,3427.44,3481.52,866.26,-359.62,-290.54
1400,1.0,0.0,0.0,0.033,0.0,45.82,90.71,-4390.72,3711.44,3625.52,574.26,-463.62,-243.54
1420,1.0,0.0,0.0,0.033,0.0,45.69,91.28,-4358.72,3759.44,3421.52,21.26,-399.62,-225.54
1441,1.0,0.0,0.0,0.033,0.0,45.62,91.62,-4634.72,3723.44,3829.52,-443.74,-312.62,-232.54
1459,1.0,0.0,0.0,0.033,0.0,45.54,91.82,-4858.72,3875.44,4149.52,-599.74,-511.62,-39.54
1481,1.0,0.0,0.0,0.018,0.0,45.39,92.07,-4830.72,3795.44,4049.52,-357.74,-1053.62,223.46
1500,1.0,0.0,0.0,0.033,0.0,45.23,92.33,-4758.72,3907.44,4097.52,-91.74,-1098.62,279.46
1519,1.0,0.0,0.0,0.0,0.0,45.06,92.68,-4474.72,4091.44,3813.52,70.26,-886.62,264.46
1540,1.0,0.0,0.0,0.018,0.0,44.98,92.88,-4766.72,4179.44,4193.52,-52.74,-458.62,37.46
1560,1.0,0.0,0.0,0.003,0.0,44.92,93.03,-4998.72,4367.44,4121.52,-467.74,-387.62,-18.54
1580,1.0,0.0,0.0,0.023,0.0,44.89,93.14,-4818.72,4151.44,4225.52,-383.74,-281.62,-124.54
1600,1.0,0.0,0.598,0.028,0.0,44.92,93.2,-4994.72,3851.44,4445.52,-227.74,-366.62,-172.54
1621,1.0,0.0,0.0,0.028,0.0,44.89,93.31,-4502.72,3871.44,4289.52,-111.74,-478.62,-209.54
1640,1.0,0.0,0.0,0.053,0.0,44.9,93.37,-4710.72,3931.44,4377.52,-194.74,-299.62,-158.54
1660,1.0,0.0,0.0,0.028,0.0,44.9,93.44,-4690.72,3983.44,4205.52,-401.74,-307.62,-149.54
1681,1.0,0.0,0.0,0.028,0.0,44.95,93.49,-4658.72,3899.44,4281.52,-347.74,-125.62,-148.54
1700,1.0,0.057,0.0,0.033,0.0,44.99,93.51,-4578.72,3823.44,4273.52,-440.74,-189.62,43.46
1719,1.0,0.0,0.0,0.043,0.0,45.03,93.6,-4558.72,3959.44,4077.52,-405.74,-140.62,133.46
1739,1.0,0.0,0.0,0.033,0.0,45.04,93.66,-4566.72,4047.44,4173.52,-376.74,-209.62,224.46
1760,1.0,0.0,0.0,0.018,0.0,45.06,93.66,-4902.72,4003.44,4329.52,-332.74,-516.62,240.46
1779,1.0,0.0,0.0,0.033,0.0,45.01,93.62,-4698.72,4283.44,4565.52,-142.74,-526.62,195.46
1800,1.0,0.0,0.0,0.038,0.0,45.01,93.63,-4718.72,4247.44,4309.52,-297.74,-353.62,134.46
1819,1.0,0.0,0.0,0.0,0.0,45.02,93.63,-4494.72,4119.44,4377.52,-158.74,-233.62,146.46
1840,1.0,0.0,0.0,0.0,0.0,45.12,93.59,-4662.72,4095.44,4533.52,-80.74,140.38,93.46
1860,1.0,0.0,0.0,0.0,0.0,45.21,93.57,-4766.72,4051.44,4505.52,9.26,46.38,52.46
1880,1.0,0.0,0.0,0.033,0.0,45.3,93.56,-4642.72,3919.44,4545.52,271.26,-92.62,173.46
1900,1.0,0.0,0.0,0.0,0.0,45.39,93.58,-4622.72,4103.44,4525.52,399.26,168.38,159.46
1920,1.0,0.0,0.0,0.023,0.0,45.48,93.53,-4546.72,4131.44,4613.52,163.26,244.38,61.46
1939,1.0,0.0,0.0,0.033,0.0,45.6,93.5,-4598.72,4079.44,4461.52,46.26,372.38,18.46
1960,1.0,0.0,0.0,0.018,0.0,45.73,93.54,-4554.72,3951.44,4169.52,21.26,304.38,66.46
1980,1.0,0.0,0.0,0.033,0.0,45.93,93.53,-4782.72,4055.44,4473.52,245.26,746.38,137.46
1999,1.0,0.0,0.0,0.008,0.0,46.02,93.54,-4530.72,4015.44,4301.52,148.26,185.38,127.46
2020,1.0,0.0,0.0,0.033,0.0,46.12,93.58,-4562.72,4047.44,4117.52,22.26,218.38,10.46
2040,1.0,0.0,0.0,0.033,0.0,46.18,93.59,-4462.72,4099.44,4237.52,80.26,133.38,-19.54
2059,1.0,0.0,0.0,0.018,0.0,46.25,93.65,-4566.72,4107.44,4005.52,63.26,107.38,6.46
2080,1.0,0.0,0.0,0.033,0.0,46.34,93.7,-4690.72,4079.44,4065.52,87.26,96.38,68.46
2100,1.0,0.0,0.0,0.003,0.0,46.39,93.7,-4510.72,4071.44,4141.52,-5.74,-15.62,74.46
2119,1.0,0.0,0.0,0.023,0.0,46.45,93.72,-4570.72,4003.44,4041.52,-92.74,-107.62,68.46
2140,1.0,0.0,0.0,0.033,0.0,46.51,93.69,-4510.72,4007.44,4145.52,-133.74,-69.62,34.46
2159,1.0,0.088,0.0,0.0,0.0,46.55,93.63,-4682.72,4031.44,4257.52,-112.74,-258.62,99.46
2180,1.0,0.0,0.0,0.038,0.0,46.66,93.64,-5322.72,4203.44,4089.52,46.26,-195.62,166.46
2200,1.0,0.0,0.0,0.0,0.0,46.7,93.59,-4638.72,4219.44,4257.52,-25.74,-96.62,15.46
2219,1.0,0.0,0.0,0.0,0.0,46.78,93.53,-4722.72,4023.44,4149.52,-261.74,-70.62,-44.54
2241,1.0,0.0,0.0,0.063,0.0,46.87,93.41,-4762.72,3903.44,4293.52,-316.74,-127.62,-118.54
2259,1.0,0.0,0.0,0.033,0.0,46.92,93.27,-4674.72,4047.44,4485.52,-118.74,-262.62,-32.54
2279,1.0,0.0,0.0,0.043,0.0,46.88,93.13,-4506.72,4055.44,4509.52,-153.74,-650.62,147.46
2300,1.0,0.0,0.0,0.033,0.0,46.93,93.04,-4530.72,4007.44,4321.52,-67.74,-199.62,197.46
2320,1.0,0.0,0.0,0.033,0.0,47.01,92.93,-4438.72,3979.44,4437.52,-75.74,-6.62,198.46
2340,1.0,0.0,0.0,0.048,0.0,47.13,92.79,-4682.72,3955.44,4505.52,-60.74,130.38,188.46
2360,1.0,0.197,0.0,0.023,0.0,47.23,92.7,-4698.72,4007.44,4413.52,48.26,33.38,235.46
2380,1.0,0.0,0.0,0.033,0.0,47.3,92.6,-4682.72,4131.44,4473.52,110.26,-6.62,212.46
2400,1.0,0.018,0.352,0.023,0.0,47.4,92.46,-5014.72,4199.44,4549.52,-9.74,-5.62,247.46
2420,1.0,0.0,0.0,0.033,0.0,47.45,92.41,-4430.72,4119.44,4297.52,114.26,-31.62,148.46
2439,1.0,0.0,0.0,0.038,0.0,47.55,92.34,-4810.72,4139.44,4353.52,80.26,137.38,37.46
2460,1.0,0.0,0.0,0.033,0.0,47.65,92.2,-4942.72,4031.44,4401.52,-241.74,-108.62,-110.54
2481,1.0,0.0,0.0,0.018,0.0,47.75,92.0,-5138.72,3775.44,4637.52,-217.74,-445.62,-239.54
2500,1.0,0.0,0.0,0.038,0.0,47.79,91.86,-4966.72,3567.44,4705.52,361.26,-978.62,-529.54
2519,1.0,0.0,0.0,0.033,0.0,47.73,91.82,-4566.72,4247.44,4533.52,602.26,-669.62,-687.54
2540,1.0,0.0,0.0,0.033,0.0,47.77,91.71,-4470.72,4299.44,4521.52,96.26,45.38,-849.54
2559,1.0,0.0,0.0,0.033,0.0,47.92,91.49,-4606.72,4087.44,4681.52,-308.74,522.38,-722.54
2580,1.0,0.0,0.0,0.038,0.0,48.08,91.23,-4602.72,3807.44,4861.52,-268.74,356.38,-333.54
2600,1.0,0.0,0.0,0.033,0.0,48.21,91.04,-4482.72,3815.44,4689.52,-98.74,305.38,157.46
2619,1.0,0.0,0.0,0.023,0.274,48.34,91.0,-4298.72,4015.44,4433.52,366.26,624.38,517.46
2639,1.0,0.0,0.0,0.033,0.0,48.47,91.08,-4318.72,4199.44,4057.52,483.26,769.38,614.46
2659,1.0,0.0,0.0,0.023,0.0,48.57,91.1,-4346.72,4459.44,4197.52,339.26,847.38,451.46
2680,1.0,0.0,0.0,0.113,0.0,48.65,91.19,-4594.72,4463.44,3853.52,175.26,495.38,253.46
2699,1.0,0.0,0.0,0.033,0.0,48.65,91.23,-4530.72,4467.44,4045.52,276.26,103.38,-78.54
2720,1.0,0.0,0.189,0.0,0.0,48.66,91.31,-4502.72,4303.44,3849.52,260.26,-15.62,-364.54
2740,1.0,0.0,0.0,0.033,0.0,48.67,91.36,-4526.72,4227.44,3961.52,212.26,-105.62,-591.54
2760,1.0,0.0,0.0,0.028,0.0,48.72,91.39,-4586.72,4023.44,3909.52,85.26,-88.62,-580.54
2780,1.0,0.0,0.0,0.033,0.0,48.79,91.39,-4658.72,3835.44,4065.52,179.26,-194.62,-529.54
2800,1.0,0.0,0.0,0.033,0.0,48.83,91.41,-4630.72,3859.44,4021.52,287.26,-286.62,-362.54
2820,1.0,0.01,0.0,0.003,0.0,48.91,91.35,-4794.72,3727.44,4317.52,283.26,-300.62,-325.54
2840,1.0,0.0,0.0,0.003,0.0,48.97,91.24,-4882.72,3703.44,4365.52,111.26,-480.62,-233.54
2859,1.0,0.018,0.0,0.038,0.0,49.08,91.14,-4878.72,3647.44,4289.52,-12.74,-270.62,-119.54
2880,1.0,0.0,0.0,0.053,0.0,49.22,91.04,-4858.72,3511.44,4257.52,-58.74,-116.62,-11.54
2899,1.0,0.01,0.0,0.008,0.0,49.33,90.88,-4754.72,3743.44,4513.52,-22.74,26.38,112.46
2919,1.0,0.003,0.0,0.103,0.0,49.43,90.78,-4734.72,3883.44,4293.52,-59.74,69.38,224.46
2939,1.0,0.0,0.0,0.008,0.0,49.52,90.64,-4730.72,3819.44,4405.52,-63.74,28.38,226.46
2960,1.0,0.0,0.0,0.0,0.0,49.6,90.55,-4690.72,3903.44,4357.52,94.26,50.38,218.46
2980,1.0,0.0,0.0,0.028,0.0,49.7,90.5,-4562.72,4019.44,4181.52,22.26,371.38,118.46
